Wavelength (nm),Intensity
394.27,1008.8000
394.56,999.6000
394.85,1015.2000
395.14,1000.0000
395.44,998.2000
395.73,999.4000
396.02,980.6000
396.31,999.0000
396.61,1012.2000
396.90,998.8000
397.19,1006.0000
397.48,1015.8000
397.77,994.4000
398.06,1003.6000
398.36,1009.8000
398.65,1003.2000
398.94,998.6000
399.23,992.4000
399.52,994.4000
399.82,1003.4000
400.11,996.4000
400.40,1016.2000
400.69,989.2000
400.98,998.2000
401.27,1020.8000
401.57,979.8000
401.86,994.8000
402.15,997.2000
402.44,1000.0000
402.73,1007.4000
403.02,1011.8000
403.32,986.8000
403.61,1002.8000
403.90,991.8000
404.19,1009.0000
404.48,1020.2000
404.77,1009.8000
405.06,1013.0000
405.36,1027.2000
405.65,998.8000
405.94,979.4000
406.23,1015.0000
406.52,1026.6000
406.81,1018.0000
407.10,1006.4000
407.40,999.2000
407.69,1010.0000
407.98,1014.0000
408.27,998.0000
408.56,989.8000
408.85,1039.2000
409.14,986.0000
409.43,1004.4000
409.72,990.6000
410.02,1037.2000
410.31,1000.2000
410.60,1005.6000
410.89,1020.8000
411.18,1000.6000
411.47,990.6000
411.76,1002.0000
412.05,994.4000
412.34,1000.6000
412.63,997.6000
412.93,1044.0000
413.22,1013.6000
413.51,986.0000
413.80,1011.2000
414.09,985.8000
414.38,1002.2000
414.67,1006.2000
414.96,984.8000
415.25,1036.6000
415.54,1012.2000
415.83,983.6000
416.12,990.8000
416.41,976.6000
416.70,1000.8000
417.00,1012.8000
417.29,1001.4000
417.58,1010.2000
417.87,1005.6000
418.16,1019.4000
418.45,992.0000
418.74,987.4000
419.03,992.6000
419.32,1027.0000
419.61,1010.8000
419.90,1019.8000
420.19,1009.0000
420.48,1000.0000
420.77,987.6000
421.06,992.4000
421.35,998.4000
421.64,1001.0000
421.93,985.0000
422.22,984.6000
422.51,1019.6000
422.80,997.8000
423.09,992.2000
423.38,1030.2000
423.67,1003.4000
423.96,989.6000
424.25,996.6000
424.54,991.8000
424.83,972.8000
425.12,982.4000
425.41,1000.2000
425.70,1057.2000
425.99,992.0000
426.28,1003.4000
426.57,1010.6000
426.86,998.6000
427.15,1012.4000
427.44,1028.8000
427.73,1022.2000
428.02,1001.6000
428.31,1007.6000
428.60,1013.6000
428.89,1008.0000
429.18,1008.2000
429.47,1008.2000
429.76,987.2000
430.05,1001.4000
430.34,1028.8000
430.63,995.8000
430.92,1022.6000
431.21,1016.2000
431.50,995.6000
431.79,992.6000
432.08,993.4000
432.37,987.0000
432.66,994.6000
432.94,996.0000
433.23,995.2000
433.52,1013.6000
433.81,1001.2000
434.10,1055.0000
434.39,1007.8000
434.68,1024.2000
434.97,985.2000
435.26,993.8000
435.55,1002.4000
435.84,1002.8000
436.13,1003.0000
436.42,1009.0000
436.71,993.6000
436.99,997.6000
437.28,1000.6000
437.57,999.2000
437.86,990.0000
438.15,1007.0000
438.44,985.4000
438.73,1002.8000
439.02,1008.6000
439.31,1018.0000
439.60,997.6000
439.88,994.8000
440.17,1004.2000
440.46,1006.0000
440.75,985.6000
441.04,977.6000
441.33,1014.0000
441.62,999.0000
441.91,990.0000
442.20,992.2000
442.48,989.0000
442.77,991.6000
443.06,1001.8000
443.35,978.4000
443.64,995.0000
443.93,987.0000
444.22,998.6000
444.50,1003.4000
444.79,1001.6000
445.08,1003.4000
445.37,1013.0000
445.66,992.4000
445.95,978.2000
446.24,992.8000
446.52,1008.4000
446.81,1025.0000
447.10,981.4000
447.39,1010.0000
447.68,992.6000
447.97,980.8000
448.25,1017.8000
448.54,1019.6000
448.83,1016.2000
449.12,1029.4000
449.41,1000.6000
449.69,1010.8000
449.98,985.6000
450.27,995.4000
450.56,976.4000
450.85,1007.0000
451.14,981.6000
451.42,994.2000
451.71,999.0000
452.00,1006.6000
452.29,1005.8000
452.58,992.8000
452.86,994.2000
453.15,997.4000
453.44,990.4000
453.73,1018.2000
454.01,1001.4000
454.30,1049.2000
454.59,977.6000
454.88,990.8000
455.17,977.6000
455.45,991.8000
455.74,1032.0000
456.03,1006.4000
456.32,998.8000
456.60,993.0000
456.89,999.0000
457.18,984.8000
457.47,987.2000
457.76,990.0000
458.04,990.6000
458.33,998.0000
458.62,991.4000
458.91,976.8000
459.19,982.2000
459.48,988.6000
459.77,977.4000
460.06,987.0000
460.34,1002.6000
460.63,997.0000
460.92,992.0000
461.20,996.0000
461.49,999.4000
461.78,978.4000
462.07,980.2000
462.35,994.2000
462.64,988.8000
462.93,1011.2000
463.22,1016.0000
463.50,1008.6000
463.79,997.2000
464.08,1021.2000
464.36,990.4000
464.65,985.8000
464.94,989.6000
465.22,996.8000
465.51,994.8000
465.80,1025.4000
466.09,980.8000
466.37,1013.8000
466.66,1013.4000
466.95,985.4000
467.23,989.6000
467.52,1005.6000
467.81,1026.2000
468.09,976.6000
468.38,991.6000
468.67,1026.6000
468.95,1000.2000
469.24,977.2000
469.53,1001.2000
469.81,1001.2000
470.10,982.6000
470.39,1001.4000
470.67,998.8000
470.96,1007.2000
471.25,991.0000
471.53,1017.0000
471.82,992.8000
472.11,1002.0000
472.39,977.0000
472.68,1003.6000
472.97,982.6000
473.25,999.2000
473.54,988.8000
473.82,992.8000
474.11,1000.2000
474.40,996.4000
474.68,1024.2000
474.97,1015.4000
475.26,1006.6000
475.54,981.0000
475.83,1010.0000
476.11,999.2000
476.40,998.8000
476.69,1004.0000
476.97,1015.0000
477.26,995.2000
477.55,1021.0000
477.83,977.2000
478.12,998.2000
478.40,998.0000
478.69,995.8000
478.98,992.2000
479.26,992.4000
479.55,996.4000
479.83,991.0000
480.12,1008.8000
480.40,1000.8000
480.69,991.0000
480.98,984.8000
481.26,1015.8000
481.55,988.8000
481.83,997.4000
482.12,988.0000
482.41,996.8000
482.69,982.0000
482.98,1001.8000
483.26,1021.2000
483.55,987.8000
483.83,986.4000
484.12,997.6000
484.40,984.4000
484.69,972.0000
484.98,1006.4000
485.26,987.0000
485.55,990.2000
485.83,975.2000
486.12,996.6000
486.40,1007.4000
486.69,994.2000
486.97,1005.8000
487.26,992.6000
487.54,997.2000
487.83,998.8000
488.11,997.6000
488.40,1018.8000
488.68,1020.6000
488.97,1003.6000
489.26,1004.8000
489.54,1013.0000
489.83,1004.0000
490.11,987.6000
490.40,1000.2000
490.68,997.2000
490.97,984.2000
491.25,1004.2000
491.54,995.6000
491.82,1018.0000
492.11,1005.8000
492.39,1004.6000
492.68,989.0000
492.96,1010.8000
493.24,983.4000
493.53,996.2000
493.81,1026.8000
494.10,988.4000
494.38,976.0000
494.67,993.0000
494.95,1024.8000
495.24,979.8000
495.52,1018.6000
495.81,1000.2000
496.09,1006.2000
496.38,982.2000
496.66,1008.2000
496.95,1006.6000
497.23,995.6000
497.51,993.4000
497.80,991.4000
498.08,994.4000
498.37,980.2000
498.65,1000.0000
498.94,1020.4000
499.22,990.0000
499.51,994.2000
499.79,1004.6000
500.07,983.4000
500.36,1006.0000
500.64,1009.2000
500.93,991.6000
501.21,1022.2000
501.50,991.6000
501.78,998.6000
502.06,986.0000
502.35,986.2000
502.63,988.6000
502.92,1004.2000
503.20,1015.4000
503.48,1026.4000
503.77,1007.4000
504.05,995.0000
504.34,991.0000
504.62,1011.0000
504.90,1006.4000
505.19,1025.8000
505.47,994.0000
505.76,984.4000
506.04,986.4000
506.32,1008.4000
506.61,989.6000
506.89,1001.2000
507.17,999.6000
507.46,998.0000
507.74,1017.0000
508.03,993.6000
508.31,1002.0000
508.59,977.2000
508.88,992.6000
509.16,1008.0000
509.44,1013.8000
509.73,1006.4000
510.01,1006.2000
510.29,995.8000
510.58,989.2000
510.86,1001.4000
511.14,1020.4000
511.43,982.2000
511.71,994.0000
511.99,1003.4000
512.28,990.4000
512.56,974.2000
512.84,990.6000
513.13,983.4000
513.41,991.4000
513.69,1005.8000
513.98,984.0000
514.26,995.0000
514.54,989.4000
514.83,995.6000
515.11,999.2000
515.39,1003.4000
515.68,1007.6000
515.96,996.0000
516.24,986.4000
516.53,991.8000
516.81,1033.0000
517.09,976.2000
517.37,990.8000
517.66,985.2000
517.94,986.8000
518.22,992.4000
518.51,986.4000
518.79,1004.4000
519.07,997.4000
519.35,1001.6000
519.64,1004.2000
519.92,1018.2000
520.20,1004.8000
520.48,1009.8000
520.77,989.0000
521.05,986.2000
521.33,975.6000
521.62,983.4000
521.90,996.6000
522.18,989.4000
522.46,994.8000
522.75,998.4000
523.03,1013.2000
523.31,978.0000
523.59,1026.8000
523.88,1003.2000
524.16,989.2000
524.44,1025.8000
524.72,1016.2000
525.00,1017.8000
525.29,995.6000
525.57,985.8000
525.85,989.6000
526.13,990.2000
526.42,965.0000
526.70,993.0000
526.98,986.6000
527.26,987.6000
527.54,983.6000
527.83,994.6000
528.11,991.4000
528.39,1012.8000
528.67,1014.4000
528.95,996.0000
529.24,974.8000
529.52,1004.2000
529.80,996.6000
530.08,1016.2000
530.36,994.6000
530.65,1014.8000
530.93,988.4000
531.21,978.0000
531.49,992.4000
531.77,1004.2000
532.05,992.8000
532.34,1004.4000
532.62,985.4000
532.90,1005.2000
533.18,1004.2000
533.46,1012.4000
533.74,1007.6000
534.03,985.4000
534.31,990.4000
534.59,999.4000
534.87,1007.6000
535.15,998.8000
535.43,1009.4000
535.71,995.6000
536.00,1010.8000
536.28,984.0000
536.56,995.0000
536.84,998.4000
537.12,987.2000
537.40,980.8000
537.68,1005.8000
537.97,1009.2000
538.25,985.8000
538.53,999.0000
538.81,1009.8000
539.09,973.8000
539.37,993.6000
539.65,989.2000
539.93,989.0000
540.21,975.0000
540.50,966.6000
540.78,1009.2000
541.06,998.0000
541.34,1004.6000
541.62,1001.8000
541.90,1009.0000
542.18,990.2000
542.46,1011.6000
542.74,994.0000
543.02,998.2000
543.30,1003.4000
543.58,1002.8000
543.87,1003.6000
544.15,990.2000
544.43,1021.2000
544.71,1003.0000
544.99,1006.0000
545.27,999.0000
545.55,972.4000
545.83,986.0000
546.11,999.4000
546.39,998.0000
546.67,1007.2000
546.95,988.0000
547.23,987.6000
547.51,991.0000
547.79,1003.2000
548.07,1004.8000
548.35,997.4000
548.63,976.0000
548.91,1016.4000
549.20,979.8000
549.48,1022.4000
549.76,985.8000
550.04,984.8000
550.32,989.4000
550.60,974.6000
550.88,978.4000
551.16,999.2000
551.44,1000.8000
551.72,980.0000
552.00,985.8000
552.28,995.8000
552.56,1012.2000
552.84,1010.6000
553.12,1007.2000
553.40,997.4000
553.68,1003.2000
553.96,993.4000
554.24,987.4000
554.52,1006.2000
554.80,991.4000
555.08,991.0000
555.36,975.0000
555.64,1004.2000
555.92,986.0000
556.19,1001.2000
556.47,988.0000
556.75,993.8000
557.03,991.0000
557.31,1020.4000
557.59,1009.2000
557.87,983.8000
558.15,990.4000
558.43,988.4000
558.71,993.6000
558.99,993.0000
559.27,997.2000
559.55,991.4000
559.83,983.6000
560.11,1000.0000
560.39,981.4000
560.67,994.4000
560.95,1007.0000
561.23,1002.6000
561.50,993.4000
561.78,986.2000
562.06,988.8000
562.34,991.6000
562.62,992.0000
562.90,1008.8000
563.18,1008.0000
563.46,983.8000
563.74,1010.8000
564.02,1022.6000
564.30,990.2000
564.57,991.8000
564.85,982.8000
565.13,1008.4000
565.41,989.0000
565.69,990.0000
565.97,1004.0000
566.25,983.0000
566.53,988.6000
566.81,1004.6000
567.08,1010.0000
567.36,984.6000
567.64,984.0000
567.92,1007.4000
568.20,987.6000
568.48,980.8000
568.76,1013.2000
569.04,1005.8000
569.31,1007.8000
569.59,1014.0000
569.87,997.8000
570.15,979.6000
570.43,1005.4000
570.71,1002.0000
570.99,985.6000
571.26,1004.4000
571.54,1000.6000
571.82,988.6000
572.10,988.2000
572.38,983.4000
572.66,1007.6000
572.93,985.2000
573.21,994.4000
573.49,989.0000
573.77,1021.6000
574.05,977.2000
574.32,991.2000
574.60,995.0000
574.88,994.8000
575.16,1016.8000
575.44,997.6000
575.71,992.2000
575.99,1060.2000
576.27,1011.6000
576.55,983.2000
576.83,1015.6000
577.10,997.8000
577.38,1002.8000
577.66,983.2000
577.94,1006.8000
578.22,973.2000
578.49,1006.6000
578.77,991.6000
579.05,1010.0000
579.33,999.6000
579.60,999.6000
579.88,1002.6000
580.16,1003.0000
580.44,1011.6000
580.72,985.6000
580.99,1001.0000
581.27,984.6000
581.55,999.2000
581.83,998.8000
582.10,995.2000
582.38,994.6000
582.66,1004.8000
582.94,997.6000
583.21,1005.6000
583.49,1009.4000
583.77,996.2000
584.04,1000.4000
584.32,1007.8000
584.60,1000.0000
584.88,980.6000
585.15,1014.2000
585.43,981.6000
585.71,990.2000
585.98,978.0000
586.26,984.8000
586.54,1001.0000
586.82,996.4000
587.09,977.4000
587.37,1003.2000
587.65,972.6000
587.92,996.4000
588.20,1000.0000
588.48,1037.2000
588.75,992.6000
589.03,978.2000
589.31,986.8000
589.59,990.8000
589.86,1021.2000
590.14,988.6000
590.42,1017.8000
590.69,1003.6000
590.97,978.4000
591.25,983.4000
591.52,979.4000
591.80,1010.6000
592.08,1001.6000
592.35,990.6000
592.63,990.2000
592.91,1013.0000
593.18,1002.4000
593.46,981.2000
593.73,1001.2000
594.01,998.4000
594.29,1011.8000
594.56,995.6000
594.84,1000.4000
595.12,1010.0000
595.39,989.4000
595.67,994.8000
595.95,986.8000
596.22,991.2000
596.50,983.6000
596.77,995.0000
597.05,1010.8000
597.33,1013.0000
597.60,988.8000
597.88,1002.4000
598.15,1002.0000
598.43,978.2000
598.71,980.6000
598.98,1048.0000
599.26,1024.4000
599.53,984.4000
599.81,1002.0000
600.09,995.8000
600.36,985.6000
600.64,989.8000
600.91,983.8000
601.19,992.8000
601.47,1002.0000
601.74,983.0000
602.02,997.0000
602.29,986.4000
602.57,1009.0000
602.84,982.4000
603.12,982.6000
603.40,999.2000
603.67,990.4000
603.95,1003.8000
604.22,1032.0000
604.50,992.8000
604.77,1004.4000
605.05,985.8000
605.32,997.2000
605.60,1012.8000
605.87,987.0000
606.15,998.0000
606.42,990.6000
606.70,992.8000
606.98,997.0000
607.25,999.4000
607.53,1009.2000
607.80,993.4000
608.08,994.4000
608.35,1002.6000
608.63,990.6000
608.90,1015.2000
609.18,1002.0000
609.45,990.8000
609.73,1007.0000
610.00,1025.8000
610.28,1000.2000
610.55,993.4000
610.83,984.0000
611.10,994.8000
611.38,1004.2000
611.65,1000.2000
611.93,993.0000
612.20,1003.8000
612.48,960.0000
612.75,992.8000
613.03,986.0000
613.30,986.6000
613.57,1005.0000
613.85,999.8000
614.12,1026.4000
614.40,993.6000
614.67,992.6000
614.95,1002.6000
615.22,991.2000
615.50,974.4000
615.77,1011.6000
616.05,983.6000
616.32,1000.4000
616.59,997.4000
616.87,995.2000
617.14,1005.2000
617.42,997.0000
617.69,1002.8000
617.97,989.2000
618.24,989.0000
618.51,974.0000
618.79,982.8000
619.06,989.2000
619.34,1003.6000
619.61,985.6000
619.88,1027.2000
620.16,1006.4000
620.43,1011.6000
620.71,981.0000
620.98,984.0000
621.26,1002.6000
621.53,991.2000
621.80,995.2000
622.08,1003.4000
622.35,987.0000
622.62,1001.6000
622.90,997.4000
623.17,995.0000
623.45,1013.0000
623.72,1007.0000
623.99,993.0000
624.27,996.6000
624.54,1009.4000
624.81,1018.2000
625.09,992.8000
625.36,1005.4000
625.64,1011.0000
625.91,1013.4000
626.18,990.2000
626.46,993.0000
626.73,1023.2000
627.00,1021.4000
627.28,987.2000
627.55,996.0000
627.82,993.4000
628.10,1009.4000
628.37,972.4000
628.64,981.4000
628.92,989.4000
629.19,981.8000
629.46,983.2000
629.74,978.2000
630.01,998.6000
630.28,1001.4000
630.56,990.2000
630.83,968.6000
631.10,992.0000
631.37,989.4000
631.65,974.6000
631.92,990.0000
632.19,992.2000
632.47,1009.8000
632.74,998.4000
633.01,1004.6000
633.28,980.4000
633.56,997.8000
633.83,974.6000
634.10,986.8000
634.38,994.6000
634.65,998.6000
634.92,995.0000
635.19,1015.2000
635.47,1000.4000
635.74,991.0000
636.01,974.6000
636.28,978.8000
636.56,993.0000
636.83,989.0000
637.10,1015.2000
637.37,1002.6000
637.65,993.0000
637.92,984.6000
638.19,967.4000
638.46,1014.6000
638.74,996.2000
639.01,1016.6000
639.28,970.4000
639.55,1010.8000
639.83,978.2000
640.10,983.8000
640.37,1008.2000
640.64,979.8000
640.91,1010.0000
641.19,987.2000
641.46,1001.2000
641.73,1017.0000
642.00,994.4000
642.28,1008.6000
642.55,995.0000
642.82,992.2000
643.09,1004.2000
643.36,999.4000
643.63,995.0000
643.91,997.2000
644.18,993.8000
644.45,985.8000
644.72,1004.6000
644.99,993.4000
645.27,980.8000
645.54,1001.6000
645.81,1037.4000
646.08,1017.6000
646.35,982.8000
646.62,983.8000
646.90,1003.6000
647.17,1010.4000
647.44,994.8000
647.71,1006.4000
647.98,981.8000
648.25,992.4000
648.52,972.2000
648.80,996.4000
649.07,980.2000
649.34,985.0000
649.61,995.4000
649.88,1024.4000
650.15,1010.6000
650.42,994.6000
650.69,998.4000
650.97,1003.4000
651.24,1010.4000
651.51,998.0000
651.78,1010.6000
652.05,980.6000
652.32,997.8000
652.59,1021.0000
652.86,982.6000
653.13,978.6000
653.41,991.2000
653.68,1007.0000
653.95,1011.2000
654.22,1002.2000
654.49,1000.4000
654.76,978.4000
655.03,1014.0000
655.30,991.0000
655.57,985.2000
655.84,998.0000
656.11,1016.6000
656.38,998.6000
656.66,999.8000
656.93,983.8000
657.20,991.2000
657.47,1021.4000
657.74,1000.2000
658.01,1003.2000
658.28,986.8000
658.55,991.0000
658.82,991.8000
659.09,1018.2000
659.36,997.6000
659.63,989.4000
659.90,998.0000
660.17,1015.2000
660.44,988.8000
660.71,994.2000
660.98,1004.0000
661.25,1008.4000
661.52,996.6000
661.79,995.4000
662.06,995.0000
662.33,976.4000
662.60,980.4000
662.87,1000.6000
663.14,997.2000
663.41,991.8000
663.68,973.8000
663.95,979.0000
664.22,1006.8000
664.49,1004.6000
664.76,977.2000
665.03,985.2000
665.30,995.6000
665.57,994.2000
665.84,985.6000
666.11,975.8000
666.38,982.0000
666.65,998.4000
666.92,1033.4000
667.19,995.0000
667.46,1009.0000
667.73,1002.0000
668.00,980.4000
668.27,1000.4000
668.54,1017.2000
668.81,987.8000
669.08,994.6000
669.35,988.0000
669.62,1023.8000
669.89,1000.0000
670.16,1000.4000
670.42,984.2000
670.69,985.2000
670.96,1003.8000
671.23,992.4000
671.50,983.6000
671.77,979.8000
672.04,1002.8000
672.31,986.0000
672.58,980.6000
672.85,979.8000
673.12,1003.6000
673.39,1001.2000
673.65,980.4000
673.92,1010.0000
674.19,986.4000
674.46,983.8000
674.73,1000.0000
675.00,988.0000
675.27,997.0000
675.54,997.4000
675.81,990.4000
676.07,995.0000
676.34,1035.0000
676.61,1007.4000
676.88,984.0000
677.15,992.0000
677.42,1000.6000
677.69,990.6000
677.96,1005.8000
678.22,998.2000
678.49,987.4000
678.76,995.2000
679.03,986.2000
679.30,989.6000
679.57,978.0000
679.83,1017.8000
680.10,997.8000
680.37,1007.2000
680.64,1007.0000
680.91,985.8000
681.18,1006.6000
681.44,981.2000
681.71,993.0000
681.98,999.4000
682.25,1000.6000
682.52,992.8000
682.79,1006.8000
683.05,1016.0000
683.32,987.8000
683.59,1001.6000
683.86,996.0000
684.13,1012.2000
684.39,986.6000
684.66,992.0000
684.93,1002.6000
685.20,1004.8000
685.47,989.8000
685.73,1005.8000
686.00,977.2000
686.27,1004.6000
686.54,993.4000
686.80,1020.6000
687.07,1014.4000
687.34,980.4000
687.61,992.6000
687.88,989.8000
688.14,988.4000
688.41,1018.4000
688.68,986.4000
688.95,972.4000
689.21,987.6000
689.48,1022.6000
689.75,1011.0000
690.02,990.2000
690.28,978.8000
690.55,1001.0000
690.82,973.8000
691.08,1001.6000
691.35,990.0000
691.62,996.6000
691.89,1008.6000
692.15,1004.6000
692.42,993.4000
692.69,975.2000
692.95,987.6000
693.22,999.6000
693.49,999.4000
693.76,997.2000
694.02,995.0000
694.29,1000.4000
694.56,986.0000
694.82,1016.2000
695.09,968.6000
695.36,998.0000
695.62,990.4000
695.89,1010.0000
696.16,994.8000
696.43,1011.4000
696.69,1015.8000
696.96,1019.8000
697.23,990.0000
697.49,1004.6000
697.76,1007.2000
698.03,990.8000
698.29,977.0000
698.56,995.2000
698.82,986.0000
699.09,1014.0000
699.36,1003.2000
699.62,996.6000
699.89,996.8000
700.16,966.4000
700.42,1003.0000
700.69,1013.8000
700.96,1000.4000
701.22,1007.4000
701.49,997.2000
701.75,1008.4000
702.02,989.8000
702.29,992.0000
702.55,990.0000
702.82,1008.0000
703.09,992.8000
703.35,1011.8000
703.62,1010.4000
703.88,1029.0000
704.15,982.2000
704.42,994.2000
704.68,983.4000
704.95,1026.0000
705.21,1001.4000
705.48,1002.8000
705.75,982.6000
706.01,993.4000
706.28,981.8000
706.54,979.2000
706.81,1007.4000
707.07,999.8000
707.34,986.0000
707.61,998.6000
707.87,999.0000
708.14,998.6000
708.40,996.6000
708.67,1007.6000
708.93,1008.2000
709.20,989.6000
709.46,993.0000
709.73,1005.6000
709.99,1008.2000
710.26,993.6000
710.53,992.6000
710.79,964.8000
711.06,996.6000
711.32,1152.8000
711.59,1029.2000
711.85,1023.0000
712.12,1004.4000
712.38,974.0000
712.65,992.6000
712.91,992.6000
713.18,1006.6000
713.44,993.0000
713.71,976.6000
713.97,1006.8000
714.24,983.8000
714.50,986.8000
714.77,993.4000
715.03,987.6000
715.30,1002.4000
715.56,991.2000
715.83,988.0000
716.09,1008.0000
716.36,1052.8000
716.62,994.0000
716.89,961.2000
717.15,1016.0000
717.42,984.2000
717.68,974.2000
717.94,979.0000
718.21,996.2000
718.47,1015.0000
718.74,987.6000
719.00,1019.6000
719.27,1004.2000
719.53,993.0000
719.80,999.6000
720.06,995.0000
720.32,1020.4000
720.59,1004.4000
720.85,991.6000
721.12,969.8000
721.38,993.6000
721.65,993.0000
721.91,990.6000
722.17,989.8000
722.44,1014.6000
722.70,990.6000
722.97,993.8000
723.23,999.2000
723.49,982.4000
723.76,981.2000
724.02,1033.4000
724.29,1007.4000
724.55,990.8000
724.81,1016.4000
725.08,1011.4000
725.34,1013.6000
725.61,995.0000
725.87,1006.6000
726.13,1003.6000
726.40,1017.8000
726.66,988.8000
726.92,994.8000
727.19,994.2000
727.45,990.0000
727.71,1001.8000
727.98,982.4000
728.24,1005.4000
728.51,995.0000
728.77,981.4000
729.03,1008.4000
729.30,1006.0000
729.56,989.6000
729.82,1024.0000
730.09,991.2000
730.35,981.8000
730.61,1001.6000
730.88,1005.0000
731.14,993.4000
731.40,990.8000
731.67,995.4000
731.93,996.6000
732.19,990.6000
732.45,1006.8000
732.72,977.0000
732.98,997.4000
733.24,992.6000
733.51,983.2000
733.77,993.2000
734.03,1007.6000
734.30,995.4000
734.56,1000.4000
734.82,968.4000
735.08,1009.2000
735.35,1000.8000
735.61,1004.2000
735.87,1002.6000
736.14,1014.0000
736.40,1006.6000
736.66,1005.6000
736.92,992.6000
737.19,1003.8000
737.45,995.4000
737.71,984.6000
737.97,990.8000
738.24,1002.0000
738.50,991.4000
738.76,1014.2000
739.02,994.0000
739.29,1011.6000
739.55,1016.0000
739.81,992.0000
740.07,994.8000
740.33,1005.4000
740.60,996.2000
740.86,1008.0000
741.12,999.4000
741.38,991.6000
741.65,1008.0000
741.91,990.6000
742.17,1003.0000
742.43,985.6000
742.69,982.0000
742.96,1007.0000
743.22,1000.0000
743.48,1009.0000
743.74,1002.4000
744.00,1003.2000
744.26,1004.2000
744.53,993.2000
744.79,983.4000
745.05,990.4000
745.31,996.0000
745.57,1019.4000
745.84,1004.2000
746.10,992.0000
746.36,984.0000
746.62,995.4000
746.88,995.4000
747.14,1000.8000
747.40,984.2000
747.67,977.0000
747.93,1000.8000
748.19,983.4000
748.45,1008.8000
748.71,993.0000
748.97,1011.0000
749.23,1011.2000
749.50,1012.4000
749.76,984.2000
750.02,991.4000
750.28,1009.8000
750.54,976.0000
750.80,1010.8000
751.06,974.6000
751.32,995.4000
751.59,993.6000
751.85,997.0000
752.11,1018.4000
752.37,1022.2000
752.63,1008.0000
752.89,1022.2000
753.15,1035.8000
753.41,984.6000
753.67,993.0000
753.93,995.4000
754.19,988.8000
754.46,1030.8000
754.72,980.2000
754.98,983.4000
755.24,1008.0000
755.50,977.0000
755.76,996.8000
756.02,1004.4000
756.28,988.8000
756.54,1003.6000
756.80,1023.8000
757.06,1009.6000
757.32,980.6000
757.58,993.0000
757.84,1034.8000
758.10,986.8000
758.36,985.2000
758.62,980.8000
758.88,992.2000
759.14,1014.4000
759.40,993.4000
759.66,979.8000
759.92,1013.6000
760.18,994.4000
760.44,1001.8000
760.70,999.6000
760.96,999.4000
761.22,1003.0000
761.48,985.2000
761.74,1013.8000
762.00,983.2000
762.26,1009.0000
762.52,996.0000
762.78,999.4000
763.04,994.0000
763.30,1017.0000
763.56,986.6000
763.82,986.4000
764.08,1008.8000
764.34,1002.6000
764.60,998.0000
764.86,998.2000
765.12,989.6000
765.38,992.2000
765.64,999.4000
765.90,1027.2000
766.16,977.4000
766.42,986.2000
766.68,982.8000
766.94,983.0000
767.20,995.8000
767.46,986.2000
767.72,972.4000
767.98,1000.8000
768.23,997.6000
768.49,992.4000
768.75,1003.6000
769.01,1020.8000
769.27,989.0000
769.53,1007.8000
769.79,996.8000
770.05,999.4000
770.31,995.8000
770.57,1020.8000
770.83,1001.6000
771.08,1004.8000
771.34,987.4000
771.60,1010.6000
771.86,974.6000
772.12,979.0000
772.38,1008.6000
772.64,995.0000
772.90,984.2000
773.16,1001.6000
773.41,1000.4000
773.67,975.6000
773.93,1000.0000
774.19,993.8000
774.45,1010.2000
774.71,1005.0000
774.97,986.4000
775.22,989.2000
775.48,1003.8000
775.74,966.6000
776.00,1018.2000
776.26,987.0000
776.52,971.2000
776.77,1002.0000
777.03,1001.2000
777.29,990.0000
777.55,984.4000
777.81,990.2000
778.07,997.4000
778.32,985.0000
778.58,986.6000
778.84,990.8000
779.10,996.8000
779.36,996.8000
779.61,984.6000
779.87,996.8000
780.13,980.0000
780.39,1005.2000
780.65,982.0000
780.90,1003.6000
781.16,992.2000
781.42,992.0000
781.68,977.2000
781.94,994.6000
782.19,991.6000
782.45,998.8000
782.71,1001.6000
782.97,1003.4000
783.22,1005.4000
783.48,986.0000
783.74,986.8000
784.00,995.6000
784.25,994.2000
784.51,996.0000
784.77,1022.0000
785.03,1000.4000
785.28,998.4000
785.54,986.2000
785.80,1005.8000
786.06,991.2000
786.31,987.0000
786.57,989.8000
786.83,999.6000
787.08,1008.6000
787.34,980.6000
787.60,1010.2000
787.86,987.0000
788.11,1000.6000
788.37,992.0000
788.63,995.6000
788.88,1024.8000
789.14,999.0000
789.40,989.6000
789.65,1009.2000
789.91,1030.0000
790.17,979.8000
790.42,984.6000
790.68,995.6000
790.94,991.8000
791.20,1024.8000
791.45,1021.6000
791.71,996.6000
791.97,975.8000
792.22,1016.2000
792.48,1008.6000
792.73,979.0000
792.99,1009.8000
793.25,969.6000
793.50,999.0000
793.76,999.4000
794.02,972.0000
794.27,976.8000
794.53,1007.6000
794.79,998.4000
795.04,1019.0000
795.30,1003.4000
795.55,1002.8000
795.81,989.6000
796.07,998.0000
796.32,995.8000
796.58,987.8000
796.84,994.4000
797.09,989.8000
797.35,995.8000
797.60,1002.0000
797.86,1000.8000
798.12,1015.8000
798.37,1016.2000
798.63,1001.0000
798.88,984.4000
799.14,989.8000
799.39,986.2000
799.65,1016.6000
799.91,975.6000
800.16,999.2000
800.42,990.2000
800.67,1013.6000
800.93,1002.0000
801.18,975.4000
801.44,1000.8000
801.70,1009.6000
801.95,991.2000
802.21,995.2000
802.46,984.2000
802.72,996.6000
802.97,1012.6000
803.23,1005.4000
803.48,995.6000
803.74,980.2000
803.99,971.6000
804.25,992.0000
804.50,1012.0000
804.76,981.8000
805.02,978.6000
805.27,1005.2000
805.53,1014.4000
805.78,974.0000
806.04,1009.4000
806.29,980.2000
806.55,1006.6000
806.80,996.2000
807.06,1039.0000
807.31,981.4000
807.56,993.6000
807.82,1001.4000
808.07,1011.2000
808.33,985.6000
808.58,993.6000
808.84,1006.2000
809.09,1004.0000
809.35,1011.0000
809.60,984.4000
809.86,999.8000
810.11,1006.0000
810.37,1000.4000
810.62,982.0000
810.88,987.0000
811.13,1002.4000
811.38,986.4000
811.64,1002.4000
811.89,1000.4000
812.15,996.4000
812.40,985.0000
812.66,1006.6000
812.91,999.8000
813.16,978.8000
813.42,983.8000
813.67,1000.8000
813.93,985.4000
814.18,998.8000
814.44,1020.0000
814.69,991.4000
814.94,997.2000
815.20,987.6000
815.45,970.4000
815.71,997.2000
815.96,980.2000
816.21,989.2000
816.47,996.0000
816.72,981.4000
816.97,988.6000
817.23,990.4000
817.48,975.8000
817.74,988.6000
817.99,985.6000
818.24,1022.8000
818.50,991.2000
818.75,1026.4000
819.00,1000.2000
819.26,1012.8000
819.51,1042.0000
819.76,982.8000
820.02,979.8000
820.27,998.2000
820.52,978.6000
820.78,973.0000
821.03,1010.0000
821.28,1000.2000
821.54,1002.4000
821.79,980.6000
822.04,985.8000
822.30,979.8000
822.55,1004.4000
822.80,1004.6000
823.06,968.2000
823.31,983.4000
823.56,1007.0000
823.82,999.6000
824.07,998.0000
824.32,980.2000
824.57,993.2000
824.83,994.2000
825.08,1003.4000
825.33,996.4000
825.59,964.0000
825.84,990.4000
826.09,993.2000
826.34,998.6000
826.60,991.6000
826.85,987.0000
827.10,988.4000
827.35,1013.6000
827.61,973.0000
827.86,1000.0000
828.11,997.6000
828.36,972.2000
828.62,999.4000
828.87,1005.6000
829.12,986.2000
829.37,1005.6000
829.63,984.8000
829.88,1013.4000
830.13,991.8000
830.38,1008.0000
830.63,971.0000
830.89,976.2000
831.14,999.6000
831.39,1008.4000
831.64,993.0000
831.89,1004.0000
832.15,975.4000
832.40,986.0000
832.65,1019.6000
832.90,996.2000
833.15,993.4000
833.41,1004.6000
833.66,1037.8000
833.91,1009.8000
834.16,997.6000
834.41,1013.4000
834.67,975.8000
834.92,1003.6000
835.17,988.2000
835.42,986.2000
835.67,996.4000
835.92,993.8000
836.17,983.4000
836.43,1004.6000
836.68,1009.4000
836.93,986.4000
837.18,993.8000
837.43,983.8000
837.68,994.8000
837.93,980.0000
838.19,992.6000
838.44,992.2000
838.69,1002.4000
838.94,980.8000
839.19,974.6000
839.44,997.0000
839.69,1005.6000
839.94,979.0000
840.20,993.0000
840.45,1009.8000
840.70,998.2000
840.95,993.0000
841.20,985.4000
841.45,982.2000
841.70,1002.2000
841.95,988.4000
842.20,1003.4000
842.45,1033.6000
842.70,1013.8000
842.95,975.4000
843.21,1003.8000
843.46,983.6000
843.71,988.6000
843.96,1009.2000
844.21,983.0000
844.46,980.4000
844.71,987.8000
844.96,1027.2000
845.21,993.8000
845.46,991.4000
845.71,1011.4000
845.96,987.2000
846.21,997.8000
846.46,1001.0000
846.71,985.0000
846.96,965.8000
847.21,999.4000
847.46,994.4000
847.71,987.4000
847.96,983.2000
848.21,971.6000
848.46,988.6000
848.71,994.0000
848.96,998.8000
849.21,1002.2000
849.46,980.4000
849.71,998.4000
849.96,973.2000
850.21,977.6000
850.46,991.2000
850.71,992.8000
850.96,967.8000
851.21,987.6000
851.46,981.2000
851.71,984.6000
851.96,967.8000
852.21,982.8000
852.46,973.4000
852.71,994.2000
852.96,996.4000
853.21,977.4000
853.46,1005.6000
853.71,1015.4000
853.96,986.6000
854.21,993.4000
854.46,1037.0000
854.70,999.0000
854.95,990.6000
855.20,989.4000
855.45,1004.4000
855.70,999.8000
855.95,993.4000
856.20,1013.4000
856.45,979.2000
856.70,999.4000
856.95,1008.2000
857.20,975.4000
857.44,1014.8000
857.69,984.6000
857.94,996.6000
858.19,1009.4000
858.44,987.8000
858.69,998.2000
858.94,1004.8000
859.19,978.4000
859.44,990.2000
859.68,998.0000
859.93,995.4000
860.18,982.6000
860.43,997.4000
860.68,1025.4000
860.93,998.0000
861.18,992.2000
861.42,1005.4000
861.67,998.4000
861.92,1014.8000
862.17,1005.8000
862.42,1007.8000
862.67,989.6000
862.91,1000.0000
863.16,1001.8000
863.41,1003.8000
863.66,1022.0000
863.91,1019.8000
864.16,1004.6000
864.40,980.8000
864.65,1002.8000
864.90,975.4000
865.15,976.2000
865.40,978.4000
865.64,1002.6000
865.89,1009.6000
866.14,996.2000
866.39,992.0000
866.64,985.0000
866.88,962.6000
867.13,1006.6000
867.38,1018.8000
867.63,971.8000
867.87,990.8000
868.12,995.4000
868.37,1007.6000
868.62,977.8000
868.86,981.2000
869.11,971.8000
869.36,1010.6000
869.61,997.8000
869.85,995.4000
870.10,1018.8000
870.35,1005.4000
870.60,990.4000
870.84,984.6000
871.09,984.2000
871.34,998.8000
871.59,996.4000
871.83,1010.0000
872.08,998.0000
872.33,966.2000
872.57,989.2000
872.82,1007.6000
873.07,992.6000
873.32,1002.0000
873.56,998.0000
873.81,995.6000
874.06,1008.0000
874.30,982.0000
874.55,999.2000
874.80,984.6000
875.04,1006.0000
875.29,993.8000
875.54,1006.4000
875.78,986.2000
876.03,986.8000
876.28,982.4000
876.52,973.8000
876.77,977.8000
877.02,1014.4000
877.26,1002.0000
877.51,977.4000
877.76,1003.6000
878.00,989.4000
878.25,1002.6000
878.50,999.4000
878.74,1000.2000
878.99,1010.6000
879.23,985.6000
879.48,985.4000
879.73,1001.8000
879.97,999.0000
880.22,977.6000
880.47,984.6000
880.71,966.4000
880.96,1008.8000
881.20,988.8000
881.45,991.2000
881.70,993.8000
881.94,993.4000
882.19,983.6000
882.43,1006.6000
882.68,981.2000
882.92,1020.2000
883.17,989.8000
883.42,1003.6000
883.66,995.4000
883.91,992.0000
884.15,981.0000
884.40,998.2000
884.64,988.0000
884.89,1011.4000
885.14,1004.2000
885.38,1016.4000
885.63,997.2000
885.87,1001.0000
886.12,995.2000
886.36,996.6000
886.61,983.2000
886.85,994.2000
887.10,1003.6000
887.34,983.2000
887.59,989.0000
887.83,979.0000
888.08,1014.8000
888.32,970.0000
888.57,1018.6000
888.81,998.2000
889.06,1012.2000
889.30,982.8000
889.55,999.6000
889.79,981.8000
890.04,1012.2000
890.28,995.4000
890.53,999.4000
890.77,1010.2000
891.02,993.2000
891.26,1005.8000
891.51,994.2000
891.75,1010.4000
892.00,988.4000
892.24,987.2000
892.49,982.0000
892.73,1007.0000
892.98,1007.0000
893.22,994.0000
893.47,971.0000
893.71,1014.8000
893.95,996.2000
894.20,984.8000
894.44,976.4000
894.69,1023.2000
894.93,1040.0000
895.18,1000.6000
895.42,1008.0000
895.66,991.2000
895.91,987.4000
896.15,993.0000
896.40,1014.0000
896.64,1021.0000
896.88,984.2000
897.13,1023.0000
897.37,988.8000
897.62,994.0000
897.86,999.0000
898.10,980.4000
898.35,988.0000
898.59,1003.0000
898.84,1011.8000
899.08,1007.2000
899.32,998.0000
899.57,1004.8000
899.81,982.2000
900.05,981.2000
900.30,1002.6000
900.54,987.2000
900.78,1029.4000
901.03,1013.0000
901.27,979.8000
901.52,986.0000
901.76,995.8000
902.00,1003.0000
902.25,993.0000
902.49,988.0000
902.73,997.6000
902.98,990.8000
903.22,1001.4000
903.46,988.6000
903.70,992.6000
903.95,989.8000
904.19,1010.4000
904.43,1019.8000
904.68,984.4000
904.92,986.0000
905.16,985.6000
905.41,1007.8000
905.65,990.0000
905.89,990.4000
906.13,1026.0000
906.38,999.8000
906.62,1013.2000
906.86,986.0000
907.11,987.8000
907.35,994.2000
907.59,1010.0000
907.83,1033.6000
908.08,998.4000
908.32,977.2000
908.56,1000.8000
908.80,996.0000
909.05,1006.4000
909.29,1005.0000
909.53,999.2000
909.77,994.6000
910.02,982.4000
910.26,1042.2000
910.50,996.0000
910.74,1001.2000
910.98,989.8000
911.23,1017.8000
911.47,1006.8000
911.71,991.6000
911.95,981.4000
912.20,1003.8000
912.44,968.2000
912.68,996.0000
912.92,993.8000
913.16,1012.4000
913.41,970.8000
913.65,1003.4000
913.89,1000.6000
914.13,987.0000
914.37,979.8000
914.61,1020.8000
914.86,994.2000
915.10,986.4000
915.34,1008.4000
915.58,985.6000
915.82,977.6000
916.06,984.6000
916.31,992.6000
916.55,994.8000
916.79,1005.4000
917.03,1008.8000
917.27,989.0000
917.51,1015.2000
917.75,998.4000
918.00,982.0000
918.24,1011.8000
918.48,1004.0000
918.72,1043.8000
918.96,988.6000
919.20,1017.6000
919.44,1042.4000
919.68,1047.0000
919.92,996.0000
920.17,990.2000
920.41,995.6000
920.65,1003.0000
920.89,1001.6000
921.13,999.4000
921.37,1015.6000
921.61,976.8000
921.85,1002.6000
922.09,997.4000
922.33,1008.0000
922.57,1004.8000
922.81,982.0000
923.05,1007.8000
923.30,980.8000
923.54,982.8000
923.78,986.6000
924.02,1008.0000
924.26,1000.6000
924.50,982.6000
924.74,1000.0000
924.98,980.6000
925.22,1004.6000
925.46,999.2000
925.70,1006.8000
925.94,1027.6000
926.18,1004.4000
926.42,1006.4000
926.66,1002.8000
926.90,980.2000
927.14,981.4000
927.38,993.2000
927.62,991.0000
927.86,1031.2000
928.10,1025.6000
928.34,984.4000
928.58,977.0000
928.82,994.6000
929.06,996.6000
929.30,1033.4000
929.54,997.6000
929.78,990.6000
930.02,959.0000
930.26,1006.6000
930.50,984.6000
930.74,988.2000
930.98,994.4000
931.22,986.8000
931.46,989.4000
931.70,996.6000
931.94,1004.6000
932.17,988.8000
932.41,1004.0000
932.65,995.0000
932.89,981.8000
933.13,986.0000
933.37,1004.2000
933.61,966.0000
933.85,994.4000
934.09,977.2000
934.33,988.0000
934.57,968.6000
934.81,988.8000
935.05,998.6000
935.28,993.8000
935.52,990.0000
935.76,981.8000
936.00,993.0000
936.24,998.8000
936.48,998.8000
936.72,995.4000
936.96,994.8000
937.19,988.8000
937.43,1015.2000
937.67,986.0000
937.91,980.6000
938.15,987.6000
938.39,985.8000
938.63,986.6000
938.86,989.2000
939.10,995.8000
939.34,985.6000
939.58,981.4000
939.82,983.6000
940.06,995.4000
940.30,964.4000
940.53,980.2000
940.77,977.0000
941.01,979.8000
941.25,970.6000
