Wavelength (nm),Intensity
394.27,1011.4000
394.56,1009.6000
394.85,1006.2000
395.14,1002.8000
395.44,1002.2000
395.73,1003.6000
396.02,979.2000
396.31,997.2000
396.61,1008.8000
396.90,986.4000
397.19,1016.6000
397.48,1007.4000
397.77,985.6000
398.06,1003.2000
398.36,1010.0000
398.65,1002.4000
398.94,1000.2000
399.23,987.6000
399.52,1003.2000
399.82,1011.0000
400.11,994.2000
400.40,1017.2000
400.69,992.4000
400.98,997.0000
401.27,1004.8000
401.57,987.2000
401.86,992.8000
402.15,998.8000
402.44,997.0000
402.73,990.8000
403.02,1015.8000
403.32,991.0000
403.61,1000.0000
403.90,986.4000
404.19,1010.2000
404.48,1005.2000
404.77,1001.2000
405.06,1007.0000
405.36,1024.8000
405.65,995.4000
405.94,976.2000
406.23,1009.8000
406.52,1025.2000
406.81,1024.6000
407.10,1011.6000
407.40,1005.4000
407.69,991.8000
407.98,1014.6000
408.27,1009.6000
408.56,986.2000
408.85,1031.6000
409.14,989.0000
409.43,1015.2000
409.72,984.2000
410.02,1033.0000
410.31,1000.8000
410.60,992.6000
410.89,1012.2000
411.18,1001.8000
411.47,995.8000
411.76,999.0000
412.05,996.4000
412.34,993.4000
412.63,991.6000
412.93,1048.4000
413.22,1019.4000
413.51,990.8000
413.80,1010.8000
414.09,994.2000
414.38,996.4000
414.67,1008.8000
414.96,982.2000
415.25,1026.0000
415.54,1014.4000
415.83,975.6000
416.12,986.4000
416.41,977.4000
416.70,1005.0000
417.00,1010.2000
417.29,1001.4000
417.58,1003.6000
417.87,1002.6000
418.16,1021.0000
418.45,988.0000
418.74,993.8000
419.03,1000.8000
419.32,1023.8000
419.61,1011.8000
419.90,1018.6000
420.19,1017.8000
420.48,995.8000
420.77,967.8000
421.06,986.6000
421.35,1000.6000
421.64,995.8000
421.93,984.6000
422.22,1004.4000
422.51,1024.2000
422.80,1007.2000
423.09,989.2000
423.38,1032.0000
423.67,1009.4000
423.96,982.8000
424.25,987.8000
424.54,991.8000
424.83,969.0000
425.12,992.6000
425.41,1002.4000
425.70,1053.6000
425.99,1016.2000
426.28,1004.8000
426.57,997.8000
426.86,1011.8000
427.15,1015.0000
427.44,1025.8000
427.73,1015.4000
428.02,1003.4000
428.31,1007.8000
428.60,1021.6000
428.89,1013.8000
429.18,1008.8000
429.47,1010.6000
429.76,996.4000
430.05,987.2000
430.34,1017.4000
430.63,995.6000
430.92,1028.6000
431.21,1023.2000
431.50,989.0000
431.79,993.6000
432.08,994.0000
432.37,985.4000
432.66,1005.0000
432.94,1001.6000
433.23,1009.0000
433.52,1016.4000
433.81,1009.0000
434.10,1056.2000
434.39,1005.8000
434.68,1017.4000
434.97,994.8000
435.26,995.8000
435.55,1003.2000
435.84,1004.8000
436.13,993.2000
436.42,1016.6000
436.71,996.2000
436.99,993.8000
437.28,986.8000
437.57,1004.4000
437.86,994.8000
438.15,1012.0000
438.44,999.0000
438.73,1003.0000
439.02,1012.8000
439.31,1012.6000
439.60,992.6000
439.88,1002.8000
440.17,998.8000
440.46,1008.6000
440.75,991.2000
441.04,973.8000
441.33,1028.8000
441.62,1001.0000
441.91,986.4000
442.20,997.0000
442.48,991.2000
442.77,977.2000
443.06,1006.4000
443.35,983.2000
443.64,998.8000
443.93,982.4000
444.22,991.6000
444.50,1001.0000
444.79,1001.2000
445.08,997.6000
445.37,1005.8000
445.66,984.6000
445.95,980.6000
446.24,985.0000
446.52,998.8000
446.81,1025.4000
447.10,976.6000
447.39,1020.0000
447.68,988.0000
447.97,978.0000
448.25,1008.8000
448.54,1019.2000
448.83,1008.8000
449.12,1025.8000
449.41,1003.2000
449.69,1007.4000
449.98,991.8000
450.27,996.2000
450.56,995.0000
450.85,995.6000
451.14,973.4000
451.42,986.2000
451.71,996.6000
452.00,995.2000
452.29,1004.0000
452.58,992.6000
452.86,992.4000
453.15,990.6000
453.44,1001.0000
453.73,1006.2000
454.01,988.4000
454.30,1044.8000
454.59,986.6000
454.88,986.2000
455.17,980.2000
455.45,993.2000
455.74,1020.6000
456.03,996.0000
456.32,991.0000
456.60,975.2000
456.89,998.2000
457.18,987.2000
457.47,977.4000
457.76,977.0000
458.04,992.0000
458.33,992.8000
458.62,991.2000
458.91,968.2000
459.19,983.4000
459.48,988.8000
459.77,982.6000
460.06,994.8000
460.34,1001.6000
460.63,994.4000
460.92,991.4000
461.20,982.8000
461.49,996.8000
461.78,974.0000
462.07,980.2000
462.35,993.6000
462.64,984.8000
462.93,1011.6000
463.22,1004.0000
463.50,1004.0000
463.79,994.8000
464.08,1012.2000
464.36,1002.6000
464.65,991.6000
464.94,995.2000
465.22,991.6000
465.51,992.0000
465.80,1022.6000
466.09,979.4000
466.37,1019.6000
466.66,1016.6000
466.95,998.0000
467.23,991.2000
467.52,999.8000
467.81,1024.6000
468.09,976.8000
468.38,1004.8000
468.67,1017.8000
468.95,993.4000
469.24,988.0000
469.53,1001.8000
469.81,1011.0000
470.10,983.0000
470.39,1006.8000
470.67,979.6000
470.96,995.0000
471.25,997.6000
471.53,1008.8000
471.82,998.2000
472.11,990.4000
472.39,984.8000
472.68,992.6000
472.97,985.0000
473.25,997.2000
473.54,991.8000
473.82,989.8000
474.11,998.4000
474.40,1002.6000
474.68,1027.2000
474.97,1023.8000
475.26,1010.0000
475.54,983.8000
475.83,993.0000
476.11,990.6000
476.40,1008.8000
476.69,1008.8000
476.97,1004.8000
477.26,1002.6000
477.55,1011.4000
477.83,972.2000
478.12,1007.0000
478.40,995.4000
478.69,1004.2000
478.98,993.8000
479.26,990.4000
479.55,999.8000
479.83,981.4000
480.12,999.8000
480.40,1009.0000
480.69,990.2000
480.98,998.8000
481.26,1011.6000
481.55,989.6000
481.83,1002.4000
482.12,998.6000
482.41,994.0000
482.69,976.4000
482.98,1000.0000
483.26,1024.0000
483.55,983.2000
483.83,1000.4000
484.12,990.8000
484.40,1002.6000
484.69,965.8000
484.98,1003.0000
485.26,991.4000
485.55,990.4000
485.83,967.4000
486.12,994.6000
486.40,986.0000
486.69,993.0000
486.97,1002.6000
487.26,998.4000
487.54,999.2000
487.83,1006.0000
488.11,993.4000
488.40,1020.8000
488.68,1024.2000
488.97,999.4000
489.26,993.2000
489.54,1013.4000
489.83,1007.0000
490.11,999.4000
490.40,1002.2000
490.68,992.0000
490.97,976.0000
491.25,1003.6000
491.54,978.2000
491.82,1010.8000
492.11,1006.6000
492.39,1003.4000
492.68,986.6000
492.96,1012.6000
493.24,984.2000
493.53,991.8000
493.81,1013.6000
494.10,980.0000
494.38,983.6000
494.67,995.8000
494.95,1012.0000
495.24,981.8000
495.52,1002.2000
495.81,1005.8000
496.09,1002.2000
496.38,979.2000
496.66,1011.8000
496.95,1001.2000
497.23,990.4000
497.51,982.0000
497.80,1000.8000
498.08,989.0000
498.37,988.4000
498.65,1004.2000
498.94,1022.4000
499.22,989.0000
499.51,988.6000
499.79,1003.4000
500.07,988.4000
500.36,1007.6000
500.64,1005.6000
500.93,994.4000
501.21,1023.8000
501.50,996.0000
501.78,991.0000
502.06,976.0000
502.35,986.6000
502.63,983.2000
502.92,992.6000
503.20,1009.6000
503.48,1033.4000
503.77,1001.2000
504.05,999.0000
504.34,986.0000
504.62,997.0000
504.90,1005.2000
505.19,1025.2000
505.47,998.0000
505.76,992.2000
506.04,996.4000
506.32,1011.2000
506.61,986.8000
506.89,1008.8000
507.17,999.0000
507.46,994.4000
507.74,1012.6000
508.03,991.6000
508.31,998.0000
508.59,968.4000
508.88,992.0000
509.16,1030.0000
509.44,1006.0000
509.73,1001.2000
510.01,1011.2000
510.29,1003.2000
510.58,985.2000
510.86,1002.4000
511.14,1011.2000
511.43,993.8000
511.71,1004.8000
511.99,996.4000
512.28,998.6000
512.56,986.2000
512.84,992.8000
513.13,983.4000
513.41,994.0000
513.69,999.8000
513.98,978.8000
514.26,1003.2000
514.54,1000.6000
514.83,1003.2000
515.11,1006.6000
515.39,1012.2000
515.68,997.8000
515.96,993.0000
516.24,983.8000
516.53,978.2000
516.81,1030.6000
517.09,969.0000
517.37,1003.0000
517.66,983.2000
517.94,985.8000
518.22,991.8000
518.51,973.8000
518.79,999.6000
519.07,985.8000
519.35,992.6000
519.64,997.2000
519.92,1007.2000
520.20,1009.6000
520.48,1002.6000
520.77,991.0000
521.05,978.6000
521.33,984.8000
521.62,973.8000
521.90,998.4000
522.18,980.2000
522.46,988.2000
522.75,981.4000
523.03,1007.4000
523.31,994.2000
523.59,1017.8000
523.88,1006.8000
524.16,987.4000
524.44,1013.0000
524.72,1017.2000
525.00,1017.6000
525.29,1003.8000
525.57,981.4000
525.85,989.8000
526.13,980.4000
526.42,970.4000
526.70,997.6000
526.98,990.4000
527.26,977.6000
527.54,988.4000
527.83,986.6000
528.11,992.0000
528.39,1003.2000
528.67,1009.0000
528.95,1003.2000
529.24,973.4000
529.52,995.4000
529.80,993.8000
530.08,1014.0000
530.36,996.2000
530.65,1005.4000
530.93,985.0000
531.21,985.2000
531.49,988.6000
531.77,1002.0000
532.05,989.6000
532.34,1004.8000
532.62,986.4000
532.90,1004.0000
533.18,991.4000
533.46,995.4000
533.74,994.6000
534.03,982.0000
534.31,1003.8000
534.59,993.4000
534.87,1001.8000
535.15,1001.8000
535.43,1005.6000
535.71,988.2000
536.00,995.6000
536.28,975.2000
536.56,1001.8000
536.84,995.4000
537.12,986.8000
537.40,996.4000
537.68,992.2000
537.97,994.0000
538.25,987.4000
538.53,1003.6000
538.81,1001.4000
539.09,975.4000
539.37,1002.4000
539.65,991.2000
539.93,1000.0000
540.21,993.6000
540.50,967.4000
540.78,1015.0000
541.06,988.0000
541.34,1017.8000
541.62,994.8000
541.90,1004.2000
542.18,985.2000
542.46,998.2000
542.74,1002.6000
543.02,1003.2000
543.30,991.8000
543.58,1006.0000
543.87,996.2000
544.15,985.8000
544.43,1009.2000
544.71,1012.0000
544.99,1002.8000
545.27,994.2000
545.55,979.8000
545.83,994.4000
546.11,995.2000
546.39,989.4000
546.67,1002.4000
546.95,979.6000
547.23,991.0000
547.51,980.2000
547.79,1003.2000
548.07,1006.8000
548.35,984.4000
548.63,985.6000
548.91,1005.0000
549.20,981.0000
549.48,1022.6000
549.76,984.4000
550.04,992.4000
550.32,992.6000
550.60,991.4000
550.88,971.6000
551.16,1006.4000
551.44,996.0000
551.72,976.0000
552.00,981.8000
552.28,1005.2000
552.56,1017.8000
552.84,1017.4000
553.12,1001.0000
553.40,992.6000
553.68,998.0000
553.96,996.6000
554.24,987.6000
554.52,1008.4000
554.80,995.8000
555.08,999.2000
555.36,977.2000
555.64,1000.8000
555.92,1000.0000
556.19,998.8000
556.47,988.2000
556.75,999.2000
557.03,995.8000
557.31,1010.8000
557.59,1004.4000
557.87,988.6000
558.15,998.4000
558.43,978.2000
558.71,992.0000
558.99,1002.6000
559.27,1007.6000
559.55,988.2000
559.83,988.8000
560.11,995.8000
560.39,984.0000
560.67,997.0000
560.95,1004.2000
561.23,995.8000
561.50,995.0000
561.78,978.8000
562.06,990.6000
562.34,1003.4000
562.62,995.2000
562.90,1011.0000
563.18,1002.0000
563.46,981.6000
563.74,997.8000
564.02,1022.2000
564.30,985.4000
564.57,994.0000
564.85,979.6000
565.13,1012.4000
565.41,985.6000
565.69,1003.2000
565.97,1002.8000
566.25,986.4000
566.53,982.8000
566.81,1023.6000
567.08,1005.8000
567.36,988.4000
567.64,988.6000
567.92,1007.6000
568.20,978.6000
568.48,980.6000
568.76,1015.4000
569.04,995.4000
569.31,1014.0000
569.59,1001.4000
569.87,995.4000
570.15,979.6000
570.43,996.0000
570.71,1005.2000
570.99,992.0000
571.26,998.8000
571.54,1007.0000
571.82,999.8000
572.10,998.2000
572.38,988.6000
572.66,1003.4000
572.93,1003.0000
573.21,985.2000
573.49,1001.0000
573.77,1016.4000
574.05,980.4000
574.32,992.8000
574.60,981.8000
574.88,992.4000
575.16,1023.0000
575.44,989.6000
575.71,993.4000
575.99,1052.2000
576.27,1021.0000
576.55,983.6000
576.83,1016.4000
577.10,1002.2000
577.38,1012.6000
577.66,992.8000
577.94,1002.4000
578.22,983.2000
578.49,1004.6000
578.77,982.6000
579.05,1009.4000
579.33,1003.2000
579.60,1014.6000
579.88,1001.2000
580.16,1001.0000
580.44,1006.4000
580.72,985.2000
580.99,990.2000
581.27,998.0000
581.55,998.8000
581.83,989.2000
582.10,990.2000
582.38,1004.4000
582.66,1006.0000
582.94,1000.4000
583.21,1015.0000
583.49,1006.8000
583.77,995.4000
584.04,995.6000
584.32,1004.8000
584.60,1002.8000
584.88,984.8000
585.15,1012.0000
585.43,975.2000
585.71,984.6000
585.98,976.8000
586.26,980.8000
586.54,1000.4000
586.82,999.0000
587.09,977.8000
587.37,993.0000
587.65,982.2000
587.92,997.2000
588.20,1003.2000
588.48,1029.4000
588.75,987.0000
589.03,980.4000
589.31,990.8000
589.59,978.2000
589.86,1022.4000
590.14,989.6000
590.42,1020.2000
590.69,996.0000
590.97,980.2000
591.25,985.8000
591.52,983.0000
591.80,1019.6000
592.08,1005.4000
592.35,996.6000
592.63,1000.8000
592.91,1003.6000
593.18,984.8000
593.46,994.8000
593.73,997.0000
594.01,1006.4000
594.29,1019.6000
594.56,986.2000
594.84,996.8000
595.12,1013.8000
595.39,1000.4000
595.67,991.0000
595.95,991.4000
596.22,991.8000
596.50,986.6000
596.77,989.8000
597.05,1015.2000
597.33,1011.0000
597.60,992.4000
597.88,998.8000
598.15,996.6000
598.43,990.6000
598.71,1000.2000
598.98,1056.8000
599.26,1028.8000
599.53,989.4000
599.81,1009.6000
600.09,993.0000
600.36,982.2000
600.64,995.4000
600.91,987.4000
601.19,987.2000
601.47,991.6000
601.74,983.6000
602.02,982.6000
602.29,986.0000
602.57,1015.4000
602.84,985.0000
603.12,989.2000
603.40,993.0000
603.67,987.6000
603.95,1009.4000
604.22,1035.4000
604.50,984.4000
604.77,990.8000
605.05,985.6000
605.32,997.2000
605.60,1007.0000
605.87,983.0000
606.15,994.0000
606.42,991.8000
606.70,997.2000
606.98,989.0000
607.25,998.8000
607.53,996.8000
607.80,1005.2000
608.08,998.8000
608.35,995.8000
608.63,980.4000
608.90,1011.0000
609.18,991.4000
609.45,984.2000
609.73,1008.8000
610.00,1025.2000
610.28,1006.6000
610.55,982.2000
610.83,985.6000
611.10,978.0000
611.38,1007.8000
611.65,1006.8000
611.93,986.4000
612.20,998.2000
612.48,972.2000
612.75,991.2000
613.03,996.4000
613.30,992.4000
613.57,1004.2000
613.85,1001.6000
614.12,1024.2000
614.40,984.8000
614.67,1000.6000
614.95,1001.2000
615.22,996.6000
615.50,977.2000
615.77,1017.6000
616.05,1006.0000
616.32,1013.0000
616.59,983.6000
616.87,1003.4000
617.14,1000.4000
617.42,1001.0000
617.69,1002.2000
617.97,994.2000
618.24,987.8000
618.51,972.4000
618.79,992.6000
619.06,980.4000
619.34,991.6000
619.61,986.0000
619.88,1031.0000
620.16,1002.0000
620.43,1006.0000
620.71,990.0000
620.98,985.2000
621.26,991.2000
621.53,998.0000
621.80,1001.4000
622.08,1004.8000
622.35,990.8000
622.62,1001.4000
622.90,996.8000
623.17,994.8000
623.45,1009.2000
623.72,1004.2000
623.99,995.6000
624.27,998.2000
624.54,1012.0000
624.81,1026.2000
625.09,997.6000
625.36,997.8000
625.64,1016.4000
625.91,1006.4000
626.18,985.0000
626.46,993.4000
626.73,1036.0000
627.00,1013.8000
627.28,998.6000
627.55,996.2000
627.82,985.2000
628.10,1006.2000
628.37,976.2000
628.64,978.6000
628.92,975.0000
629.19,987.4000
629.46,994.8000
629.74,984.0000
630.01,991.8000
630.28,1004.4000
630.56,991.2000
630.83,975.6000
631.10,985.2000
631.37,1000.0000
631.65,988.8000
631.92,985.4000
632.19,989.0000
632.47,1014.4000
632.74,995.8000
633.01,1007.8000
633.28,999.0000
633.56,994.8000
633.83,980.0000
634.10,984.6000
634.38,989.0000
634.65,1003.2000
634.92,999.0000
635.19,1014.6000
635.47,994.8000
635.74,990.4000
636.01,981.4000
636.28,978.2000
636.56,999.0000
636.83,986.0000
637.10,1011.4000
637.37,1007.0000
637.65,991.0000
637.92,988.4000
638.19,971.2000
638.46,1018.2000
638.74,990.2000
639.01,1007.8000
639.28,966.8000
639.55,1002.0000
639.83,980.8000
640.10,982.2000
640.37,1004.4000
640.64,979.4000
640.91,993.4000
641.19,981.0000
641.46,993.4000
641.73,1016.0000
642.00,993.8000
642.28,1010.0000
642.55,997.2000
642.82,989.2000
643.09,1009.0000
643.36,1007.0000
643.63,1004.0000
643.91,998.0000
644.18,1000.0000
644.45,995.8000
644.72,1015.6000
644.99,989.6000
645.27,979.6000
645.54,990.8000
645.81,1043.6000
646.08,1009.6000
646.35,983.4000
646.62,996.4000
646.90,994.2000
647.17,1012.0000
647.44,1005.0000
647.71,1003.6000
647.98,976.6000
648.25,996.0000
648.52,975.0000
648.80,990.0000
649.07,994.4000
649.34,992.8000
649.61,986.6000
649.88,1017.2000
650.15,1002.4000
650.42,993.2000
650.69,993.8000
650.97,1017.4000
651.24,1002.4000
651.51,1004.2000
651.78,1010.6000
652.05,973.0000
652.32,990.0000
652.59,1033.4000
652.86,995.6000
653.13,988.4000
653.41,996.4000
653.68,1007.2000
653.95,1003.6000
654.22,998.8000
654.49,996.8000
654.76,981.6000
655.03,1012.6000
655.30,976.4000
655.57,986.8000
655.84,995.4000
656.11,1011.8000
656.38,989.6000
656.66,1001.2000
656.93,988.4000
657.20,990.2000
657.47,1015.8000
657.74,1000.6000
658.01,1012.4000
658.28,978.4000
658.55,995.8000
658.82,994.4000
659.09,1015.4000
659.36,998.4000
659.63,988.2000
659.90,996.6000
660.17,1013.4000
660.44,986.2000
660.71,995.4000
660.98,995.6000
661.25,995.8000
661.52,983.8000
661.79,981.8000
662.06,989.6000
662.33,982.2000
662.60,974.0000
662.87,997.2000
663.14,977.6000
663.41,998.8000
663.68,983.2000
663.95,974.8000
664.22,998.0000
664.49,1001.8000
664.76,985.8000
665.03,978.4000
665.30,995.6000
665.57,973.6000
665.84,985.0000
666.11,985.6000
666.38,974.2000
666.65,997.4000
666.92,1028.0000
667.19,987.0000
667.46,996.2000
667.73,995.2000
668.00,1000.0000
668.27,998.2000
668.54,1010.4000
668.81,983.8000
669.08,1008.4000
669.35,985.0000
669.62,1012.2000
669.89,985.0000
670.16,1006.2000
670.42,988.0000
670.69,993.2000
670.96,1002.2000
671.23,988.8000
671.50,984.0000
671.77,981.6000
672.04,993.0000
672.31,988.8000
672.58,985.0000
672.85,995.4000
673.12,986.2000
673.39,1003.8000
673.65,979.4000
673.92,1012.4000
674.19,991.8000
674.46,1003.8000
674.73,989.2000
675.00,985.6000
675.27,999.2000
675.54,1004.2000
675.81,994.4000
676.07,1000.2000
676.34,1028.0000
676.61,1019.2000
676.88,978.6000
677.15,989.4000
677.42,1005.4000
677.69,996.8000
677.96,1005.2000
678.22,1010.6000
678.49,980.8000
678.76,992.2000
679.03,985.2000
679.30,993.8000
679.57,973.8000
679.83,1008.4000
680.10,993.4000
680.37,1004.2000
680.64,1008.2000
680.91,984.4000
681.18,1007.2000
681.44,989.2000
681.71,976.2000
681.98,1008.8000
682.25,998.0000
682.52,993.8000
682.79,995.8000
683.05,1016.4000
683.32,996.4000
683.59,1010.4000
683.86,1000.0000
684.13,1017.0000
684.39,987.4000
684.66,988.0000
684.93,1002.8000
685.20,1007.2000
685.47,994.6000
685.73,997.4000
686.00,974.2000
686.27,1003.4000
686.54,979.2000
686.80,1002.0000
687.07,1008.4000
687.34,978.4000
687.61,995.2000
687.88,995.8000
688.14,988.6000
688.41,1009.8000
688.68,986.8000
688.95,991.8000
689.21,984.8000
689.48,1018.0000
689.75,999.4000
690.02,975.2000
690.28,978.8000
690.55,993.4000
690.82,968.8000
691.08,993.6000
691.35,995.6000
691.62,1010.8000
691.89,1000.4000
692.15,1003.4000
692.42,993.6000
692.69,968.4000
692.95,984.0000
693.22,1002.2000
693.49,992.2000
693.76,998.0000
694.02,989.6000
694.29,995.6000
694.56,987.6000
694.82,1015.4000
695.09,982.0000
695.36,987.4000
695.62,981.0000
695.89,1002.2000
696.16,984.2000
696.43,1009.8000
696.69,1021.0000
696.96,1017.8000
697.23,991.6000
697.49,1004.6000
697.76,1013.4000
698.03,990.4000
698.29,980.2000
698.56,994.2000
698.82,988.0000
699.09,1017.6000
699.36,997.2000
699.62,988.2000
699.89,996.0000
700.16,981.2000
700.42,1008.6000
700.69,1000.8000
700.96,995.8000
701.22,1011.6000
701.49,986.6000
701.75,1004.0000
702.02,989.4000
702.29,1000.6000
702.55,994.2000
702.82,999.4000
703.09,996.0000
703.35,1011.8000
703.62,993.0000
703.88,1016.2000
704.15,981.4000
704.42,1000.6000
704.68,973.0000
704.95,1018.0000
705.21,983.2000
705.48,1008.0000
705.75,979.0000
706.01,1002.2000
706.28,979.0000
706.54,987.0000
706.81,995.6000
707.07,995.2000
707.34,985.6000
707.61,1000.0000
707.87,998.0000
708.14,993.8000
708.40,997.6000
708.67,1005.0000
708.93,995.2000
709.20,991.4000
709.46,1004.6000
709.73,1002.8000
709.99,1001.4000
710.26,987.0000
710.53,975.4000
710.79,962.0000
711.06,1008.8000
711.32,1075.6000
711.59,1022.0000
711.85,1010.8000
712.12,992.4000
712.38,983.4000
712.65,988.4000
712.91,991.6000
713.18,1017.2000
713.44,1003.8000
713.71,980.6000
713.97,1006.4000
714.24,999.0000
714.50,994.8000
714.77,997.6000
715.03,1001.2000
715.30,1003.4000
715.56,997.8000
715.83,982.2000
716.09,1005.0000
716.36,1033.2000
716.62,1000.0000
716.89,974.4000
717.15,1014.4000
717.42,973.8000
717.68,975.0000
717.94,989.0000
718.21,998.0000
718.47,1006.6000
718.74,997.0000
719.00,1014.8000
719.27,1005.2000
719.53,982.8000
719.80,1002.2000
720.06,999.4000
720.32,1014.8000
720.59,1000.2000
720.85,1007.2000
721.12,984.4000
721.38,1008.4000
721.65,990.4000
721.91,988.2000
722.17,986.0000
722.44,1007.6000
722.70,996.8000
722.97,993.8000
723.23,997.2000
723.49,978.8000
723.76,983.6000
724.02,1016.4000
724.29,1003.8000
724.55,1000.6000
724.81,1015.8000
725.08,1006.8000
725.34,1015.2000
725.61,991.2000
725.87,1002.8000
726.13,1000.2000
726.40,1005.4000
726.66,1005.6000
726.92,1000.6000
727.19,991.6000
727.45,986.2000
727.71,1010.4000
727.98,987.4000
728.24,1012.2000
728.51,994.4000
728.77,981.6000
729.03,1004.6000
729.30,1003.8000
729.56,980.4000
729.82,1017.4000
730.09,989.2000
730.35,984.8000
730.61,995.6000
730.88,994.0000
731.14,978.0000
731.40,1004.0000
731.67,996.6000
731.93,983.6000
732.19,1001.2000
732.45,1010.2000
732.72,971.4000
732.98,1005.2000
733.24,982.0000
733.51,988.4000
733.77,992.8000
734.03,997.8000
734.30,1009.4000
734.56,1008.4000
734.82,966.6000
735.08,1010.8000
735.35,1008.2000
735.61,1004.6000
735.87,1011.2000
736.14,1021.4000
736.40,1014.4000
736.66,1002.2000
736.92,1003.8000
737.19,1001.8000
737.45,1001.6000
737.71,989.8000
737.97,995.8000
738.24,997.0000
738.50,1002.4000
738.76,1024.6000
739.02,982.4000
739.29,1007.2000
739.55,1023.0000
739.81,1004.4000
740.07,1000.8000
740.33,1004.2000
740.60,999.4000
740.86,1009.6000
741.12,1000.4000
741.38,982.6000
741.65,1006.2000
741.91,994.2000
742.17,1008.4000
742.43,980.0000
742.69,987.0000
742.96,1016.0000
743.22,1005.6000
743.48,998.6000
743.74,999.4000
744.00,988.4000
744.26,986.0000
744.53,991.8000
744.79,984.0000
745.05,983.8000
745.31,982.2000
745.57,1014.6000
745.84,1012.2000
746.10,986.2000
746.36,972.4000
746.62,992.6000
746.88,991.6000
747.14,1006.2000
747.40,988.4000
747.67,986.8000
747.93,1011.6000
748.19,990.0000
748.45,995.4000
748.71,982.2000
748.97,1013.8000
749.23,1017.0000
749.50,1000.8000
749.76,992.2000
750.02,984.8000
750.28,1014.2000
750.54,979.0000
750.80,993.2000
751.06,973.8000
751.32,994.4000
751.59,993.4000
751.85,1006.2000
752.11,1016.0000
752.37,1022.2000
752.63,997.6000
752.89,1017.6000
753.15,1033.2000
753.41,982.2000
753.67,999.2000
753.93,1000.6000
754.19,986.0000
754.46,1022.0000
754.72,984.0000
754.98,999.4000
755.24,1004.8000
755.50,986.2000
755.76,985.2000
756.02,1008.4000
756.28,975.0000
756.54,999.4000
756.80,1015.4000
757.06,1019.6000
757.32,982.4000
757.58,986.6000
757.84,1007.0000
758.10,980.2000
758.36,986.8000
758.62,975.0000
758.88,998.8000
759.14,1014.4000
759.40,1003.8000
759.66,978.8000
759.92,1010.8000
760.18,991.0000
760.44,997.6000
760.70,1006.8000
760.96,1006.2000
761.22,996.0000
761.48,983.6000
761.74,1000.2000
762.00,990.6000
762.26,996.4000
762.52,988.0000
762.78,998.0000
763.04,995.2000
763.30,1027.8000
763.56,976.8000
763.82,984.0000
764.08,1004.0000
764.34,1008.6000
764.60,997.6000
764.86,1005.8000
765.12,983.4000
765.38,993.8000
765.64,999.4000
765.90,1030.6000
766.16,982.6000
766.42,981.4000
766.68,1001.0000
766.94,982.2000
767.20,981.8000
767.46,987.4000
767.72,980.8000
767.98,1006.2000
768.23,996.8000
768.49,999.6000
768.75,1005.0000
769.01,1010.0000
769.27,983.8000
769.53,1009.8000
769.79,1007.6000
770.05,1001.6000
770.31,1000.2000
770.57,1018.0000
770.83,989.0000
771.08,1001.6000
771.34,988.2000
771.60,1007.0000
771.86,994.2000
772.12,986.2000
772.38,995.8000
772.64,988.2000
772.90,979.8000
773.16,1008.2000
773.41,992.0000
773.67,988.2000
773.93,1000.4000
774.19,986.2000
774.45,1003.4000
774.71,1017.0000
774.97,980.0000
775.22,974.2000
775.48,997.8000
775.74,981.2000
776.00,1009.0000
776.26,983.0000
776.52,971.2000
776.77,991.6000
777.03,1003.2000
777.29,986.6000
777.55,982.4000
777.81,999.4000
778.07,988.6000
778.32,990.6000
778.58,981.8000
778.84,979.0000
779.10,993.2000
779.36,1007.8000
779.61,994.0000
779.87,988.0000
780.13,984.6000
780.39,1004.0000
780.65,986.4000
780.90,989.0000
781.16,990.2000
781.42,979.4000
781.68,976.6000
781.94,996.6000
782.19,994.2000
782.45,994.4000
782.71,995.6000
782.97,994.8000
783.22,1007.8000
783.48,983.6000
783.74,990.6000
784.00,982.8000
784.25,985.8000
784.51,995.0000
784.77,1020.4000
785.03,993.8000
785.28,998.4000
785.54,997.8000
785.80,993.8000
786.06,987.4000
786.31,988.6000
786.57,995.4000
786.83,994.8000
787.08,1007.2000
787.34,987.0000
787.60,1021.8000
787.86,997.0000
788.11,998.0000
788.37,993.6000
788.63,1003.2000
788.88,1025.6000
789.14,997.4000
789.40,995.2000
789.65,1004.4000
789.91,1017.2000
790.17,989.0000
790.42,981.4000
790.68,990.6000
790.94,990.8000
791.20,1034.0000
791.45,1017.4000
791.71,1001.6000
791.97,982.6000
792.22,1014.6000
792.48,1011.6000
792.73,975.6000
792.99,1002.2000
793.25,960.8000
793.50,991.6000
793.76,1004.0000
794.02,983.2000
794.27,981.2000
794.53,1006.6000
794.79,996.4000
795.04,1003.4000
795.30,996.6000
795.55,1000.4000
795.81,978.8000
796.07,1002.0000
796.32,1000.0000
796.58,995.6000
796.84,997.2000
797.09,1007.0000
797.35,996.6000
797.60,1004.0000
797.86,998.6000
798.12,1015.8000
798.37,1000.8000
798.63,988.2000
798.88,987.8000
799.14,1003.8000
799.39,988.4000
799.65,1010.6000
799.91,966.6000
800.16,998.8000
800.42,987.8000
800.67,1016.8000
800.93,997.4000
801.18,967.4000
801.44,1004.0000
801.70,1018.8000
801.95,994.2000
802.21,996.6000
802.46,988.6000
802.72,990.0000
802.97,1011.6000
803.23,1005.0000
803.48,1007.8000
803.74,981.4000
803.99,980.6000
804.25,990.6000
804.50,1007.8000
804.76,977.6000
805.02,990.0000
805.27,998.2000
805.53,1001.8000
805.78,981.0000
806.04,1009.4000
806.29,984.8000
806.55,1011.6000
806.80,992.2000
807.06,1035.0000
807.31,983.2000
807.56,988.6000
807.82,1008.0000
808.07,997.6000
808.33,985.6000
808.58,998.0000
808.84,1013.8000
809.09,984.4000
809.35,1016.4000
809.60,988.2000
809.86,1003.4000
810.11,1007.8000
810.37,980.0000
810.62,981.2000
810.88,976.6000
811.13,998.4000
811.38,984.8000
811.64,993.8000
811.89,999.6000
812.15,990.0000
812.40,997.8000
812.66,1008.4000
812.91,1004.6000
813.16,975.4000
813.42,1000.8000
813.67,1006.2000
813.93,994.0000
814.18,991.4000
814.44,1027.6000
814.69,993.4000
814.94,996.6000
815.20,987.0000
815.45,980.0000
815.71,993.2000
815.96,978.0000
816.21,996.0000
816.47,1002.6000
816.72,983.4000
816.97,999.4000
817.23,979.8000
817.48,974.2000
817.74,985.8000
817.99,989.0000
818.24,1012.6000
818.50,980.4000
818.75,1011.4000
819.00,1000.6000
819.26,1015.8000
819.51,1039.6000
819.76,982.8000
820.02,983.6000
820.27,987.6000
820.52,970.6000
820.78,976.0000
821.03,991.6000
821.28,1004.4000
821.54,994.8000
821.79,989.4000
822.04,994.4000
822.30,988.8000
822.55,1009.2000
822.80,999.8000
823.06,986.2000
823.31,992.2000
823.56,993.4000
823.82,987.4000
824.07,996.4000
824.32,981.4000
824.57,989.0000
824.83,1003.6000
825.08,1012.0000
825.33,996.8000
825.59,970.8000
825.84,992.6000
826.09,993.2000
826.34,985.4000
826.60,996.6000
826.85,992.0000
827.10,984.6000
827.35,1010.8000
827.61,971.8000
827.86,988.2000
828.11,1002.4000
828.36,955.6000
828.62,987.6000
828.87,1016.8000
829.12,986.6000
829.37,1000.6000
829.63,978.8000
829.88,1002.2000
830.13,1000.6000
830.38,1008.6000
830.63,967.2000
830.89,993.2000
831.14,987.0000
831.39,990.8000
831.64,995.4000
831.89,998.0000
832.15,979.0000
832.40,991.4000
832.65,1001.8000
832.90,988.8000
833.15,993.6000
833.41,1002.2000
833.66,1045.0000
833.91,1000.8000
834.16,994.4000
834.41,1001.8000
834.67,973.6000
834.92,995.6000
835.17,989.8000
835.42,987.4000
835.67,986.6000
835.92,988.4000
836.17,982.4000
836.43,1000.0000
836.68,1027.0000
836.93,978.6000
837.18,987.2000
837.43,973.2000
837.68,992.4000
837.93,980.6000
838.19,977.2000
838.44,977.6000
838.69,1006.0000
838.94,969.8000
839.19,972.0000
839.44,989.8000
839.69,1009.2000
839.94,979.4000
840.20,1007.8000
840.45,1021.4000
840.70,1019.8000
840.95,997.6000
841.20,982.8000
841.45,987.6000
841.70,1008.4000
841.95,989.6000
842.20,990.8000
842.45,1026.4000
842.70,1001.0000
842.95,976.8000
843.21,997.6000
843.46,991.6000
843.71,999.4000
843.96,1013.8000
844.21,980.4000
844.46,980.4000
844.71,986.6000
844.96,1028.8000
845.21,981.2000
845.46,990.0000
845.71,1008.6000
845.96,995.2000
846.21,1006.6000
846.46,994.8000
846.71,986.0000
846.96,974.0000
847.21,1007.4000
847.46,1003.8000
847.71,994.2000
847.96,996.2000
848.21,971.6000
848.46,993.8000
848.71,996.6000
848.96,993.6000
849.21,996.0000
849.46,977.2000
849.71,997.0000
849.96,978.0000
850.21,981.4000
850.46,997.4000
850.71,983.8000
850.96,968.0000
851.21,990.8000
851.46,987.0000
851.71,983.2000
851.96,970.0000
852.21,985.0000
852.46,983.6000
852.71,992.8000
852.96,986.4000
853.21,996.0000
853.46,1000.6000
853.71,1014.4000
853.96,983.8000
854.21,982.6000
854.46,1030.2000
854.70,1001.6000
854.95,994.0000
855.20,999.6000
855.45,995.8000
855.70,999.6000
855.95,987.0000
856.20,1000.0000
856.45,980.8000
856.70,986.8000
856.95,995.4000
857.20,973.0000
857.44,1016.6000
857.69,985.0000
857.94,986.2000
858.19,1009.0000
858.44,983.2000
858.69,997.4000
858.94,1004.4000
859.19,992.2000
859.44,976.0000
859.68,1004.2000
859.93,992.0000
860.18,981.6000
860.43,993.6000
860.68,1016.8000
860.93,990.4000
861.18,997.8000
861.42,996.4000
861.67,997.2000
861.92,1010.6000
862.17,1003.2000
862.42,1008.8000
862.67,999.6000
862.91,1003.2000
863.16,1003.8000
863.41,989.4000
863.66,1002.2000
863.91,1026.0000
864.16,1004.2000
864.40,984.4000
864.65,997.2000
864.90,972.8000
865.15,978.4000
865.40,993.2000
865.64,1011.0000
865.89,1003.6000
866.14,995.4000
866.39,983.8000
866.64,990.4000
866.88,981.0000
867.13,1005.8000
867.38,1007.4000
867.63,975.0000
867.87,980.6000
868.12,1005.2000
868.37,1015.0000
868.62,979.6000
868.86,981.6000
869.11,966.0000
869.36,997.6000
869.61,1013.0000
869.85,1007.6000
870.10,1032.2000
870.35,994.8000
870.60,996.6000
870.84,991.4000
871.09,986.4000
871.34,1004.6000
871.59,998.0000
871.83,1006.2000
872.08,999.8000
872.33,967.0000
872.57,989.8000
872.82,1008.4000
873.07,992.2000
873.32,1006.2000
873.56,1002.4000
873.81,991.8000
874.06,1020.4000
874.30,975.0000
874.55,1007.6000
874.80,985.8000
875.04,1013.6000
875.29,992.2000
875.54,1007.2000
875.78,989.2000
876.03,1001.2000
876.28,993.4000
876.52,971.8000
876.77,984.6000
877.02,997.2000
877.26,992.0000
877.51,993.0000
877.76,1007.2000
878.00,1010.6000
878.25,997.2000
878.50,1005.0000
878.74,996.6000
878.99,1000.6000
879.23,984.2000
879.48,980.4000
879.73,1004.8000
879.97,994.8000
880.22,980.8000
880.47,987.2000
880.71,970.0000
880.96,1010.4000
881.20,981.8000
881.45,989.6000
881.70,992.4000
881.94,997.2000
882.19,979.6000
882.43,1013.6000
882.68,984.0000
882.92,1024.2000
883.17,992.2000
883.42,996.4000
883.66,1000.4000
883.91,978.8000
884.15,981.4000
884.40,1000.0000
884.64,989.4000
884.89,1015.2000
885.14,992.8000
885.38,1011.6000
885.63,997.8000
885.87,992.2000
886.12,1000.6000
886.36,997.4000
886.61,995.6000
886.85,983.8000
887.10,996.6000
887.34,990.8000
887.59,997.8000
887.83,979.8000
888.08,999.0000
888.32,976.0000
888.57,1005.2000
888.81,996.6000
889.06,1010.8000
889.30,979.2000
889.55,992.4000
889.79,985.8000
890.04,1007.6000
890.28,985.2000
890.53,1001.0000
890.77,1022.4000
891.02,997.6000
891.26,1004.4000
891.51,1000.0000
891.75,993.0000
892.00,985.6000
892.24,992.6000
892.49,988.2000
892.73,1006.2000
892.98,995.0000
893.22,989.0000
893.47,977.6000
893.71,1003.2000
893.95,996.8000
894.20,984.2000
894.44,978.6000
894.69,1028.6000
894.93,1052.8000
895.18,993.6000
895.42,1003.4000
895.66,986.6000
895.91,993.8000
896.15,981.8000
896.40,1001.8000
896.64,1021.2000
896.88,996.2000
897.13,1013.2000
897.37,989.0000
897.62,990.8000
897.86,1001.8000
898.10,992.0000
898.35,996.6000
898.59,991.8000
898.84,1012.4000
899.08,1001.6000
899.32,999.6000
899.57,1011.6000
899.81,976.4000
900.05,1000.4000
900.30,993.2000
900.54,984.8000
900.78,1023.8000
901.03,1017.6000
901.27,997.6000
901.52,992.2000
901.76,993.4000
902.00,997.2000
902.25,991.0000
902.49,983.2000
902.73,1006.8000
902.98,990.8000
903.22,992.4000
903.46,1000.4000
903.70,997.6000
903.95,992.6000
904.19,1004.2000
904.43,1016.0000
904.68,997.2000
904.92,983.8000
905.16,993.8000
905.41,991.8000
905.65,983.8000
905.89,987.8000
906.13,1024.8000
906.38,987.4000
906.62,1014.2000
906.86,982.2000
907.11,978.8000
907.35,993.0000
907.59,1013.8000
907.83,1030.4000
908.08,982.2000
908.32,964.8000
908.56,998.2000
908.80,1004.2000
909.05,1008.6000
909.29,1005.2000
909.53,992.8000
909.77,985.8000
910.02,986.8000
910.26,1020.2000
910.50,989.6000
910.74,1001.2000
910.98,995.8000
911.23,1012.6000
911.47,1004.0000
911.71,1002.2000
911.95,990.6000
912.20,1010.8000
912.44,977.2000
912.68,993.0000
912.92,993.4000
913.16,1014.2000
913.41,971.0000
913.65,1006.0000
913.89,996.0000
914.13,993.0000
914.37,985.2000
914.61,1018.8000
914.86,993.6000
915.10,995.4000
915.34,999.8000
915.58,982.4000
915.82,983.2000
916.06,984.2000
916.31,1001.0000
916.55,993.2000
916.79,1011.4000
917.03,1004.6000
917.27,975.8000
917.51,1013.0000
917.75,998.8000
918.00,987.8000
918.24,1016.4000
918.48,1001.6000
918.72,1042.6000
918.96,990.8000
919.20,1020.8000
919.44,1039.8000
919.68,1051.4000
919.92,1005.8000
920.17,989.2000
920.41,993.2000
920.65,1001.6000
920.89,985.8000
921.13,1000.8000
921.37,1009.4000
921.61,968.8000
921.85,992.6000
922.09,995.4000
922.33,1004.6000
922.57,999.2000
922.81,969.8000
923.05,991.2000
923.30,997.0000
923.54,990.4000
923.78,973.4000
924.02,999.0000
924.26,1002.2000
924.50,985.4000
924.74,996.6000
924.98,989.2000
925.22,998.0000
925.46,995.2000
925.70,1001.6000
925.94,1029.2000
926.18,982.4000
926.42,1004.6000
926.66,998.4000
926.90,980.4000
927.14,981.2000
927.38,995.4000
927.62,990.4000
927.86,1030.4000
928.10,1009.4000
928.34,981.2000
928.58,990.8000
928.82,995.2000
929.06,996.4000
929.30,1031.0000
929.54,1000.0000
929.78,991.4000
930.02,972.6000
930.26,994.4000
930.50,986.8000
930.74,1004.4000
930.98,1002.6000
931.22,998.2000
931.46,997.0000
931.70,992.8000
931.94,1006.6000
932.17,993.0000
932.41,1004.0000
932.65,987.6000
932.89,981.0000
933.13,1001.0000
933.37,1005.0000
933.61,967.4000
933.85,1004.6000
934.09,980.0000
934.33,985.8000
934.57,960.0000
934.81,982.2000
935.05,988.8000
935.28,993.4000
935.52,987.0000
935.76,966.0000
936.00,1004.0000
936.24,1000.0000
936.48,993.6000
936.72,1000.4000
936.96,993.6000
937.19,997.8000
937.43,1014.6000
937.67,988.2000
937.91,996.0000
938.15,983.8000
938.39,996.0000
938.63,980.8000
938.86,979.0000
939.10,983.0000
939.34,981.2000
939.58,969.0000
939.82,982.4000
940.06,992.8000
940.30,979.2000
940.53,986.4000
940.77,972.6000
941.01,965.0000
941.25,968.4000
