Wavelength (nm),Intensity
394.27,1018.6000
394.56,1002.8000
394.85,1012.6000
395.14,1008.4000
395.44,987.8000
395.73,1005.4000
396.02,989.6000
396.31,1002.0000
396.61,1005.8000
396.90,1005.8000
397.19,1006.8000
397.48,1011.0000
397.77,992.4000
398.06,1007.8000
398.36,998.8000
398.65,997.0000
398.94,993.2000
399.23,991.6000
399.52,1001.0000
399.82,1000.2000
400.11,994.2000
400.40,1014.4000
400.69,992.0000
400.98,1005.0000
401.27,1028.2000
401.57,971.2000
401.86,1008.4000
402.15,993.8000
402.44,997.0000
402.73,992.4000
403.02,1022.6000
403.32,996.4000
403.61,1004.6000
403.90,996.2000
404.19,1008.8000
404.48,1021.2000
404.77,992.8000
405.06,1010.0000
405.36,1017.2000
405.65,1005.4000
405.94,977.0000
406.23,1011.6000
406.52,1016.0000
406.81,1030.4000
407.10,1012.4000
407.40,1011.4000
407.69,1005.6000
407.98,1010.6000
408.27,997.6000
408.56,973.8000
408.85,1032.0000
409.14,983.0000
409.43,1010.2000
409.72,996.4000
410.02,1032.4000
410.31,1005.4000
410.60,1011.0000
410.89,1013.2000
411.18,996.0000
411.47,997.8000
411.76,1001.4000
412.05,989.6000
412.34,1010.4000
412.63,990.6000
412.93,1037.2000
413.22,1017.2000
413.51,997.4000
413.80,1010.0000
414.09,984.2000
414.38,992.4000
414.67,1005.2000
414.96,977.2000
415.25,1044.4000
415.54,1022.0000
415.83,973.8000
416.12,977.8000
416.41,978.4000
416.70,1013.4000
417.00,1012.8000
417.29,1009.4000
417.58,1008.8000
417.87,997.0000
418.16,1014.0000
418.45,1000.6000
418.74,1001.6000
419.03,993.8000
419.32,1027.4000
419.61,1011.0000
419.90,1014.2000
420.19,1017.8000
420.48,996.0000
420.77,988.8000
421.06,982.2000
421.35,998.4000
421.64,1007.4000
421.93,976.2000
422.22,994.8000
422.51,1018.8000
422.80,1000.6000
423.09,983.4000
423.38,1031.2000
423.67,1008.4000
423.96,989.6000
424.25,1003.2000
424.54,983.6000
424.83,972.8000
425.12,987.6000
425.41,1004.0000
425.70,1058.6000
425.99,1004.0000
426.28,1004.2000
426.57,1004.2000
426.86,995.2000
427.15,1009.6000
427.44,1027.4000
427.73,1014.6000
428.02,996.4000
428.31,1019.4000
428.60,1020.6000
428.89,1008.0000
429.18,1009.8000
429.47,1005.6000
429.76,993.0000
430.05,998.4000
430.34,1017.6000
430.63,999.0000
430.92,1025.0000
431.21,1020.2000
431.50,995.4000
431.79,984.6000
432.08,997.2000
432.37,985.8000
432.66,1003.6000
432.94,1003.8000
433.23,994.6000
433.52,1021.6000
433.81,1001.8000
434.10,1058.0000
434.39,1005.8000
434.68,1021.0000
434.97,976.2000
435.26,997.0000
435.55,997.4000
435.84,999.2000
436.13,997.2000
436.42,1004.0000
436.71,1005.4000
436.99,990.2000
437.28,991.6000
437.57,1009.2000
437.86,995.8000
438.15,1002.2000
438.44,991.6000
438.73,1005.0000
439.02,1017.2000
439.31,1016.4000
439.60,993.8000
439.88,1006.6000
440.17,1002.2000
440.46,1015.6000
440.75,978.8000
441.04,979.4000
441.33,1014.4000
441.62,1012.6000
441.91,983.8000
442.20,1001.2000
442.48,994.0000
442.77,982.4000
443.06,990.0000
443.35,980.8000
443.64,991.8000
443.93,986.0000
444.22,1002.6000
444.50,1004.8000
444.79,1002.2000
445.08,998.2000
445.37,995.6000
445.66,988.6000
445.95,981.8000
446.24,985.2000
446.52,1003.2000
446.81,1019.2000
447.10,980.0000
447.39,1004.2000
447.68,984.6000
447.97,975.2000
448.25,1016.2000
448.54,1003.4000
448.83,1013.6000
449.12,1016.8000
449.41,990.6000
449.69,1002.6000
449.98,989.6000
450.27,996.2000
450.56,986.0000
450.85,1009.6000
451.14,980.8000
451.42,1000.2000
451.71,1009.0000
452.00,998.6000
452.29,1016.6000
452.58,995.0000
452.86,999.2000
453.15,999.6000
453.44,993.8000
453.73,1022.8000
454.01,991.2000
454.30,1048.6000
454.59,983.8000
454.88,989.8000
455.17,977.8000
455.45,996.8000
455.74,1030.2000
456.03,1009.2000
456.32,989.0000
456.60,987.4000
456.89,1005.6000
457.18,990.6000
457.47,980.8000
457.76,991.6000
458.04,992.8000
458.33,1006.8000
458.62,999.8000
458.91,973.8000
459.19,978.4000
459.48,978.0000
459.77,982.2000
460.06,994.6000
460.34,999.0000
460.63,991.4000
460.92,985.2000
461.20,990.0000
461.49,995.8000
461.78,988.4000
462.07,984.2000
462.35,990.8000
462.64,1003.2000
462.93,999.0000
463.22,1012.2000
463.50,1000.6000
463.79,998.4000
464.08,1006.6000
464.36,1004.4000
464.65,987.4000
464.94,992.4000
465.22,1004.8000
465.51,982.6000
465.80,1022.8000
466.09,990.2000
466.37,1013.6000
466.66,1015.6000
466.95,990.2000
467.23,988.4000
467.52,995.6000
467.81,1028.2000
468.09,991.8000
468.38,1000.8000
468.67,1027.6000
468.95,1003.4000
469.24,981.4000
469.53,1010.0000
469.81,1012.8000
470.10,992.8000
470.39,1000.6000
470.67,985.2000
470.96,1007.6000
471.25,988.8000
471.53,1016.6000
471.82,997.8000
472.11,1001.8000
472.39,980.4000
472.68,990.4000
472.97,984.6000
473.25,995.4000
473.54,986.2000
473.82,999.4000
474.11,993.4000
474.40,997.6000
474.68,1019.4000
474.97,1026.0000
475.26,997.8000
475.54,985.6000
475.83,1003.8000
476.11,992.4000
476.40,1009.2000
476.69,1011.6000
476.97,1011.4000
477.26,997.4000
477.55,1028.4000
477.83,983.6000
478.12,986.8000
478.40,990.0000
478.69,990.8000
478.98,1001.6000
479.26,981.4000
479.55,1010.8000
479.83,1000.0000
480.12,996.6000
480.40,1005.0000
480.69,977.2000
480.98,981.0000
481.26,1010.8000
481.55,997.2000
481.83,998.8000
482.12,996.4000
482.41,990.4000
482.69,976.6000
482.98,998.4000
483.26,1025.6000
483.55,990.4000
483.83,981.0000
484.12,991.6000
484.40,1004.0000
484.69,980.6000
484.98,996.6000
485.26,992.6000
485.55,1004.0000
485.83,983.8000
486.12,1003.8000
486.40,996.6000
486.69,989.2000
486.97,989.8000
487.26,995.0000
487.54,998.4000
487.83,986.2000
488.11,994.0000
488.40,1017.4000
488.68,1016.6000
488.97,996.4000
489.26,992.2000
489.54,1003.0000
489.83,1004.0000
490.11,988.0000
490.40,1012.6000
490.68,1001.8000
490.97,983.4000
491.25,998.4000
491.54,985.2000
491.82,1011.6000
492.11,990.6000
492.39,1021.0000
492.68,996.4000
492.96,1022.4000
493.24,983.8000
493.53,987.4000
493.81,1017.4000
494.10,985.8000
494.38,992.0000
494.67,986.8000
494.95,1029.8000
495.24,978.6000
495.52,1010.6000
495.81,998.2000
496.09,1002.2000
496.38,975.6000
496.66,1010.2000
496.95,995.6000
497.23,995.6000
497.51,977.2000
497.80,985.6000
498.08,990.8000
498.37,982.8000
498.65,1003.2000
498.94,1032.2000
499.22,991.6000
499.51,993.8000
499.79,993.6000
500.07,982.0000
500.36,1011.0000
500.64,1018.0000
500.93,994.0000
501.21,1013.0000
501.50,996.0000
501.78,997.2000
502.06,980.6000
502.35,981.0000
502.63,988.4000
502.92,995.8000
503.20,1013.2000
503.48,1027.4000
503.77,1000.0000
504.05,988.6000
504.34,986.2000
504.62,1010.6000
504.90,1009.0000
505.19,1027.2000
505.47,991.0000
505.76,990.8000
506.04,986.0000
506.32,1007.0000
506.61,977.8000
506.89,1001.8000
507.17,992.6000
507.46,999.4000
507.74,1004.2000
508.03,999.8000
508.31,1003.8000
508.59,974.8000
508.88,985.4000
509.16,991.4000
509.44,996.8000
509.73,999.6000
510.01,1000.4000
510.29,998.4000
510.58,988.6000
510.86,1004.8000
511.14,1017.8000
511.43,1002.0000
511.71,1005.8000
511.99,1002.0000
512.28,995.8000
512.56,975.0000
512.84,994.0000
513.13,984.0000
513.41,999.8000
513.69,1001.4000
513.98,979.8000
514.26,1010.6000
514.54,995.0000
514.83,1000.8000
515.11,992.6000
515.39,1002.2000
515.68,999.8000
515.96,988.8000
516.24,983.6000
516.53,995.4000
516.81,1030.4000
517.09,985.4000
517.37,989.6000
517.66,981.2000
517.94,983.2000
518.22,1006.4000
518.51,980.0000
518.79,997.4000
519.07,984.2000
519.35,1001.6000
519.64,1011.8000
519.92,1004.8000
520.20,1009.2000
520.48,1015.0000
520.77,993.0000
521.05,978.4000
521.33,971.0000
521.62,981.0000
521.90,999.2000
522.18,986.8000
522.46,986.8000
522.75,986.2000
523.03,992.2000
523.31,977.2000
523.59,1013.6000
523.88,1008.6000
524.16,992.8000
524.44,1008.2000
524.72,1007.8000
525.00,1017.6000
525.29,996.4000
525.57,987.8000
525.85,997.4000
526.13,990.8000
526.42,976.2000
526.70,993.0000
526.98,982.8000
527.26,982.2000
527.54,993.4000
527.83,1004.2000
528.11,989.0000
528.39,1011.6000
528.67,997.6000
528.95,988.4000
529.24,975.6000
529.52,1010.6000
529.80,995.2000
530.08,1005.8000
530.36,983.8000
530.65,1016.0000
530.93,977.8000
531.21,983.4000
531.49,985.2000
531.77,997.4000
532.05,992.4000
532.34,995.0000
532.62,992.6000
532.90,1008.2000
533.18,1000.6000
533.46,992.6000
533.74,991.8000
534.03,992.8000
534.31,977.8000
534.59,985.6000
534.87,988.4000
535.15,1003.2000
535.43,995.4000
535.71,996.8000
536.00,1001.0000
536.28,984.0000
536.56,1000.2000
536.84,999.0000
537.12,977.4000
537.40,989.4000
537.68,1009.8000
537.97,999.8000
538.25,987.6000
538.53,1011.2000
538.81,1007.8000
539.09,964.8000
539.37,995.8000
539.65,990.6000
539.93,989.4000
540.21,981.6000
540.50,977.0000
540.78,1008.0000
541.06,1001.4000
541.34,994.8000
541.62,992.8000
541.90,1016.6000
542.18,986.8000
542.46,992.8000
542.74,1004.4000
543.02,992.6000
543.30,994.4000
543.58,1006.2000
543.87,1006.6000
544.15,989.0000
544.43,1007.2000
544.71,999.6000
544.99,1000.6000
545.27,996.2000
545.55,978.4000
545.83,987.0000
546.11,999.6000
546.39,1006.0000
546.67,999.4000
546.95,984.0000
547.23,988.8000
547.51,994.8000
547.79,1015.8000
548.07,999.8000
548.35,995.8000
548.63,982.2000
548.91,1008.4000
549.20,992.0000
549.48,1025.4000
549.76,981.6000
550.04,985.4000
550.32,1000.4000
550.60,977.6000
550.88,982.0000
551.16,1012.6000
551.44,995.2000
551.72,977.8000
552.00,985.4000
552.28,986.8000
552.56,1017.4000
552.84,1011.8000
553.12,1003.8000
553.40,993.8000
553.68,1001.2000
553.96,997.2000
554.24,980.0000
554.52,1000.0000
554.80,995.0000
555.08,1002.4000
555.36,974.0000
555.64,1007.8000
555.92,997.8000
556.19,986.0000
556.47,988.0000
556.75,1008.2000
557.03,1000.8000
557.31,1000.0000
557.59,1015.0000
557.87,977.6000
558.15,996.2000
558.43,982.6000
558.71,982.2000
558.99,989.4000
559.27,996.8000
559.55,970.6000
559.83,980.4000
560.11,989.6000
560.39,985.6000
560.67,995.4000
560.95,1002.4000
561.23,983.4000
561.50,994.2000
561.78,987.0000
562.06,994.4000
562.34,988.6000
562.62,992.0000
562.90,1018.2000
563.18,999.8000
563.46,984.2000
563.74,999.4000
564.02,1027.4000
564.30,992.0000
564.57,995.8000
564.85,968.8000
565.13,1009.8000
565.41,986.4000
565.69,995.4000
565.97,1007.6000
566.25,978.2000
566.53,990.8000
566.81,1009.6000
567.08,995.4000
567.36,988.8000
567.64,998.6000
567.92,1016.8000
568.20,982.8000
568.48,990.2000
568.76,1002.8000
569.04,1008.8000
569.31,1027.0000
569.59,1016.8000
569.87,989.4000
570.15,988.2000
570.43,993.6000
570.71,1001.0000
570.99,996.4000
571.26,990.0000
571.54,1015.6000
571.82,983.6000
572.10,992.4000
572.38,985.2000
572.66,1001.2000
572.93,998.6000
573.21,999.4000
573.49,997.8000
573.77,1012.8000
574.05,972.4000
574.32,989.4000
574.60,997.0000
574.88,1007.4000
575.16,1015.0000
575.44,996.2000
575.71,999.8000
575.99,1046.4000
576.27,1007.4000
576.55,988.6000
576.83,1007.4000
577.10,1008.0000
577.38,1002.6000
577.66,989.2000
577.94,997.4000
578.22,968.2000
578.49,1002.2000
578.77,998.2000
579.05,1014.4000
579.33,1001.6000
579.60,998.8000
579.88,997.6000
580.16,1006.8000
580.44,998.2000
580.72,988.4000
580.99,994.0000
581.27,1000.2000
581.55,993.4000
581.83,995.0000
582.10,996.8000
582.38,989.0000
582.66,1014.2000
582.94,994.8000
583.21,1014.0000
583.49,1009.0000
583.77,993.2000
584.04,996.8000
584.32,1007.0000
584.60,1006.8000
584.88,982.2000
585.15,1014.0000
585.43,982.0000
585.71,974.4000
585.98,982.6000
586.26,980.6000
586.54,1003.6000
586.82,991.8000
587.09,970.6000
587.37,1015.4000
587.65,974.4000
587.92,998.0000
588.20,1000.8000
588.48,1040.6000
588.75,991.4000
589.03,980.2000
589.31,999.2000
589.59,979.0000
589.86,1016.6000
590.14,997.0000
590.42,1009.0000
590.69,1007.8000
590.97,989.6000
591.25,982.4000
591.52,989.8000
591.80,1014.4000
592.08,996.0000
592.35,994.0000
592.63,996.2000
592.91,1007.0000
593.18,989.0000
593.46,981.2000
593.73,1004.8000
594.01,1004.4000
594.29,1018.4000
594.56,986.8000
594.84,996.0000
595.12,1017.6000
595.39,991.6000
595.67,991.4000
595.95,984.6000
596.22,993.2000
596.50,984.2000
596.77,981.4000
597.05,1011.2000
597.33,1011.6000
597.60,999.0000
597.88,1001.4000
598.15,1000.2000
598.43,984.4000
598.71,992.0000
598.98,1058.4000
599.26,1018.4000
599.53,990.0000
599.81,1008.0000
600.09,982.4000
600.36,979.8000
600.64,993.4000
600.91,986.6000
601.19,985.8000
601.47,989.0000
601.74,975.6000
602.02,1000.8000
602.29,993.0000
602.57,999.0000
602.84,995.8000
603.12,983.8000
603.40,998.0000
603.67,977.8000
603.95,1006.0000
604.22,1028.8000
604.50,990.8000
604.77,1002.4000
605.05,991.6000
605.32,996.6000
605.60,1009.8000
605.87,989.8000
606.15,992.2000
606.42,992.4000
606.70,1001.2000
606.98,991.6000
607.25,991.8000
607.53,1015.0000
607.80,998.4000
608.08,999.2000
608.35,1002.6000
608.63,981.6000
608.90,1001.2000
609.18,987.0000
609.45,977.6000
609.73,1007.8000
610.00,1018.8000
610.28,1006.6000
610.55,986.8000
610.83,985.8000
611.10,997.4000
611.38,1001.2000
611.65,996.4000
611.93,973.2000
612.20,998.2000
612.48,968.8000
612.75,996.4000
613.03,998.0000
613.30,997.6000
613.57,999.6000
613.85,988.2000
614.12,1010.8000
614.40,983.4000
614.67,989.4000
614.95,1002.6000
615.22,990.2000
615.50,980.2000
615.77,1010.0000
616.05,991.6000
616.32,1011.2000
616.59,993.2000
616.87,987.2000
617.14,1003.4000
617.42,985.8000
617.69,1004.8000
617.97,978.4000
618.24,998.8000
618.51,978.6000
618.79,984.6000
619.06,984.8000
619.34,997.8000
619.61,987.8000
619.88,1017.6000
620.16,994.2000
620.43,999.2000
620.71,975.8000
620.98,984.0000
621.26,996.2000
621.53,999.0000
621.80,1002.4000
622.08,992.8000
622.35,982.0000
622.62,1006.2000
622.90,1001.4000
623.17,992.4000
623.45,1008.0000
623.72,1005.4000
623.99,987.6000
624.27,1001.6000
624.54,1005.6000
624.81,1024.0000
625.09,999.8000
625.36,1006.2000
625.64,1007.8000
625.91,1002.2000
626.18,985.8000
626.46,985.6000
626.73,1027.6000
627.00,1008.4000
627.28,993.2000
627.55,987.4000
627.82,999.8000
628.10,1008.4000
628.37,984.4000
628.64,981.6000
628.92,985.2000
629.19,987.0000
629.46,979.2000
629.74,980.6000
630.01,1002.2000
630.28,999.4000
630.56,988.8000
630.83,971.0000
631.10,975.6000
631.37,1011.2000
631.65,982.8000
631.92,991.8000
632.19,990.2000
632.47,1013.2000
632.74,992.0000
633.01,1013.6000
633.28,982.2000
633.56,994.8000
633.83,980.8000
634.10,985.8000
634.38,991.6000
634.65,997.2000
634.92,989.8000
635.19,1021.2000
635.47,998.2000
635.74,982.4000
636.01,974.2000
636.28,981.2000
636.56,991.2000
636.83,978.6000
637.10,1006.4000
637.37,1006.2000
637.65,1009.6000
637.92,986.8000
638.19,980.0000
638.46,1010.2000
638.74,982.8000
639.01,1007.2000
639.28,964.4000
639.55,1006.2000
639.83,981.8000
640.10,991.8000
640.37,999.0000
640.64,987.0000
640.91,1012.2000
641.19,984.6000
641.46,995.2000
641.73,1021.6000
642.00,1001.6000
642.28,1008.8000
642.55,995.8000
642.82,983.8000
643.09,1011.4000
643.36,1005.6000
643.63,1004.0000
643.91,1003.0000
644.18,998.0000
644.45,999.6000
644.72,1013.8000
644.99,987.4000
645.27,976.8000
645.54,1004.4000
645.81,1042.8000
646.08,1008.4000
646.35,980.2000
646.62,979.8000
646.90,988.2000
647.17,1013.4000
647.44,994.0000
647.71,989.6000
647.98,978.8000
648.25,992.2000
648.52,978.8000
648.80,984.8000
649.07,985.6000
649.34,984.8000
649.61,988.4000
649.88,1019.0000
650.15,1004.6000
650.42,992.6000
650.69,991.8000
650.97,1000.4000
651.24,1002.2000
651.51,1004.8000
651.78,1007.2000
652.05,977.4000
652.32,997.6000
652.59,1021.6000
652.86,977.2000
653.13,981.0000
653.41,1002.8000
653.68,1003.6000
653.95,1002.0000
654.22,994.0000
654.49,993.8000
654.76,988.6000
655.03,1010.0000
655.30,987.8000
655.57,970.2000
655.84,1001.6000
656.11,1014.4000
656.38,986.0000
656.66,995.8000
656.93,980.4000
657.20,999.8000
657.47,1034.0000
657.74,993.4000
658.01,1003.4000
658.28,987.0000
658.55,989.4000
658.82,999.2000
659.09,1006.8000
659.36,997.4000
659.63,988.2000
659.90,1002.4000
660.17,1004.2000
660.44,992.0000
660.71,978.0000
660.98,994.6000
661.25,998.6000
661.52,990.2000
661.79,983.0000
662.06,994.0000
662.33,987.6000
662.60,982.4000
662.87,1009.4000
663.14,981.6000
663.41,996.4000
663.68,970.0000
663.95,981.0000
664.22,998.8000
664.49,1003.4000
664.76,980.0000
665.03,974.8000
665.30,991.4000
665.57,989.2000
665.84,989.8000
666.11,981.4000
666.38,976.8000
666.65,995.0000
666.92,1040.6000
667.19,996.4000
667.46,1012.8000
667.73,1000.6000
668.00,1000.4000
668.27,983.2000
668.54,1014.0000
668.81,996.4000
669.08,999.4000
669.35,985.8000
669.62,1016.8000
669.89,996.0000
670.16,1011.8000
670.42,996.0000
670.69,996.0000
670.96,1006.2000
671.23,997.0000
671.50,978.6000
671.77,979.2000
672.04,985.4000
672.31,987.4000
672.58,982.6000
672.85,989.4000
673.12,983.8000
673.39,1002.8000
673.65,974.6000
673.92,1011.4000
674.19,978.6000
674.46,994.8000
674.73,999.8000
675.00,990.4000
675.27,1002.4000
675.54,996.2000
675.81,991.2000
676.07,989.8000
676.34,1031.8000
676.61,1007.8000
676.88,971.8000
677.15,982.8000
677.42,1012.8000
677.69,988.0000
677.96,997.8000
678.22,1009.0000
678.49,988.0000
678.76,974.2000
679.03,983.4000
679.30,984.4000
679.57,980.6000
679.83,1004.6000
680.10,994.0000
680.37,1001.2000
680.64,1006.2000
680.91,985.2000
681.18,1001.4000
681.44,984.2000
681.71,982.2000
681.98,1010.0000
682.25,991.4000
682.52,999.6000
682.79,991.0000
683.05,1017.6000
683.32,995.6000
683.59,1002.4000
683.86,993.6000
684.13,1009.6000
684.39,986.6000
684.66,997.0000
684.93,996.2000
685.20,991.0000
685.47,989.4000
685.73,1005.4000
686.00,984.6000
686.27,998.4000
686.54,991.0000
686.80,1017.4000
687.07,1006.8000
687.34,962.2000
687.61,990.0000
687.88,993.2000
688.14,992.2000
688.41,1014.4000
688.68,973.6000
688.95,974.0000
689.21,985.4000
689.48,1014.8000
689.75,1002.6000
690.02,992.2000
690.28,972.8000
690.55,995.6000
690.82,965.2000
691.08,1003.8000
691.35,996.6000
691.62,1002.6000
691.89,1007.8000
692.15,995.6000
692.42,998.2000
692.69,967.8000
692.95,981.0000
693.22,989.0000
693.49,998.8000
693.76,999.0000
694.02,990.2000
694.29,996.6000
694.56,991.4000
694.82,1001.6000
695.09,979.6000
695.36,990.6000
695.62,988.4000
695.89,1003.0000
696.16,983.8000
696.43,1008.8000
696.69,1020.0000
696.96,1026.8000
697.23,989.6000
697.49,1005.2000
697.76,1009.0000
698.03,984.0000
698.29,983.0000
698.56,997.8000
698.82,980.0000
699.09,1008.2000
699.36,1001.2000
699.62,994.2000
699.89,999.0000
700.16,973.6000
700.42,1008.6000
700.69,1004.0000
700.96,1004.8000
701.22,1015.0000
701.49,987.8000
701.75,1012.0000
702.02,991.8000
702.29,988.6000
702.55,976.0000
702.82,1003.6000
703.09,1010.2000
703.35,1009.8000
703.62,1003.2000
703.88,1016.6000
704.15,972.8000
704.42,1002.6000
704.68,982.6000
704.95,1017.8000
705.21,985.2000
705.48,1007.2000
705.75,981.0000
706.01,1003.8000
706.28,986.6000
706.54,983.2000
706.81,1002.6000
707.07,997.0000
707.34,987.2000
707.61,1002.6000
707.87,1000.6000
708.14,992.6000
708.40,1002.6000
708.67,1010.8000
708.93,999.0000
709.20,988.4000
709.46,989.4000
709.73,1001.8000
709.99,1006.4000
710.26,990.4000
710.53,977.4000
710.79,963.6000
711.06,1000.4000
711.32,1076.8000
711.59,1025.4000
711.85,1030.4000
712.12,996.8000
712.38,986.8000
712.65,992.6000
712.91,993.0000
713.18,1005.4000
713.44,1002.2000
713.71,978.6000
713.97,1010.0000
714.24,988.6000
714.50,989.2000
714.77,992.6000
715.03,992.8000
715.30,1004.4000
715.56,1000.2000
715.83,979.0000
716.09,1010.0000
716.36,1027.0000
716.62,984.6000
716.89,975.4000
717.15,1003.6000
717.42,989.2000
717.68,973.0000
717.94,983.4000
718.21,998.8000
718.47,1004.4000
718.74,987.2000
719.00,1010.8000
719.27,998.2000
719.53,986.2000
719.80,1005.6000
720.06,1001.8000
720.32,1020.8000
720.59,1013.6000
720.85,992.8000
721.12,981.4000
721.38,1003.0000
721.65,984.4000
721.91,987.8000
722.17,977.8000
722.44,1015.4000
722.70,999.2000
722.97,992.0000
723.23,1000.8000
723.49,991.0000
723.76,991.6000
724.02,1025.4000
724.29,1010.4000
724.55,984.0000
724.81,1011.0000
725.08,1002.4000
725.34,1014.0000
725.61,979.8000
725.87,1006.2000
726.13,995.2000
726.40,1005.8000
726.66,995.2000
726.92,982.0000
727.19,985.6000
727.45,988.2000
727.71,1003.8000
727.98,992.6000
728.24,1022.4000
728.51,996.0000
728.77,983.6000
729.03,996.4000
729.30,1007.6000
729.56,985.8000
729.82,1010.0000
730.09,983.2000
730.35,979.8000
730.61,1001.0000
730.88,993.4000
731.14,996.2000
731.40,1002.6000
731.67,999.6000
731.93,982.2000
732.19,995.4000
732.45,1006.4000
732.72,978.2000
732.98,1001.2000
733.24,990.0000
733.51,976.8000
733.77,990.4000
734.03,1000.4000
734.30,1006.4000
734.56,1011.6000
734.82,976.2000
735.08,999.8000
735.35,1007.6000
735.61,1009.4000
735.87,1001.0000
736.14,1023.0000
736.40,1003.2000
736.66,1006.0000
736.92,1009.8000
737.19,1003.4000
737.45,1006.0000
737.71,993.8000
737.97,985.4000
738.24,1003.0000
738.50,997.8000
738.76,1021.6000
739.02,995.0000
739.29,1007.6000
739.55,1010.2000
739.81,1002.6000
740.07,993.4000
740.33,1009.0000
740.60,988.8000
740.86,1017.6000
741.12,1003.4000
741.38,988.2000
741.65,996.6000
741.91,992.8000
742.17,991.2000
742.43,981.6000
742.69,987.4000
742.96,1019.6000
743.22,999.8000
743.48,1005.0000
743.74,1004.6000
744.00,992.4000
744.26,995.0000
744.53,999.6000
744.79,991.8000
745.05,991.6000
745.31,988.4000
745.57,1013.4000
745.84,1002.4000
746.10,984.6000
746.36,987.6000
746.62,992.0000
746.88,1004.2000
747.14,1008.8000
747.40,993.2000
747.67,993.2000
747.93,992.8000
748.19,980.4000
748.45,1006.4000
748.71,1000.6000
748.97,1008.0000
749.23,1017.0000
749.50,1005.6000
749.76,992.8000
750.02,978.2000
750.28,1008.0000
750.54,986.0000
750.80,994.0000
751.06,973.0000
751.32,990.2000
751.59,999.8000
751.85,1006.4000
752.11,1017.2000
752.37,1003.0000
752.63,993.8000
752.89,1007.0000
753.15,1020.2000
753.41,991.2000
753.67,997.0000
753.93,1000.6000
754.19,992.2000
754.46,1025.2000
754.72,984.2000
754.98,992.8000
755.24,1007.2000
755.50,966.2000
755.76,982.2000
756.02,998.2000
756.28,982.2000
756.54,992.0000
756.80,1017.6000
757.06,1008.8000
757.32,970.0000
757.58,990.0000
757.84,1018.8000
758.10,980.2000
758.36,976.8000
758.62,982.0000
758.88,998.2000
759.14,1018.4000
759.40,997.0000
759.66,985.8000
759.92,997.2000
760.18,987.6000
760.44,989.0000
760.70,1002.8000
760.96,1012.2000
761.22,1001.8000
761.48,990.0000
761.74,1012.8000
762.00,995.4000
762.26,998.4000
762.52,994.0000
762.78,1004.8000
763.04,992.2000
763.30,1023.8000
763.56,983.8000
763.82,982.0000
764.08,1008.2000
764.34,1000.2000
764.60,1009.4000
764.86,998.6000
765.12,979.2000
765.38,993.8000
765.64,1005.8000
765.90,1025.6000
766.16,984.6000
766.42,991.0000
766.68,994.8000
766.94,981.8000
767.20,983.8000
767.46,985.6000
767.72,979.0000
767.98,1009.0000
768.23,995.8000
768.49,991.6000
768.75,1009.6000
769.01,1023.6000
769.27,994.8000
769.53,1002.0000
769.79,999.0000
770.05,995.0000
770.31,985.2000
770.57,1021.0000
770.83,982.4000
771.08,1000.6000
771.34,972.2000
771.60,1004.2000
771.86,987.0000
772.12,970.2000
772.38,998.2000
772.64,988.6000
772.90,988.6000
773.16,999.8000
773.41,1008.6000
773.67,986.2000
773.93,991.6000
774.19,1000.0000
774.45,1010.8000
774.71,1010.0000
774.97,989.0000
775.22,984.6000
775.48,998.4000
775.74,971.2000
776.00,1002.2000
776.26,989.8000
776.52,978.4000
776.77,990.0000
777.03,998.6000
777.29,989.6000
777.55,985.0000
777.81,999.8000
778.07,985.8000
778.32,986.2000
778.58,987.0000
778.84,986.2000
779.10,999.8000
779.36,1006.2000
779.61,990.8000
779.87,1003.6000
780.13,996.0000
780.39,992.2000
780.65,988.0000
780.90,998.0000
781.16,1007.8000
781.42,976.0000
781.68,986.6000
781.94,996.4000
782.19,994.6000
782.45,996.8000
782.71,994.6000
782.97,1003.0000
783.22,1006.0000
783.48,982.6000
783.74,985.2000
784.00,997.8000
784.25,987.8000
784.51,987.0000
784.77,1007.4000
785.03,995.0000
785.28,989.6000
785.54,978.4000
785.80,1008.8000
786.06,990.8000
786.31,995.0000
786.57,989.4000
786.83,992.6000
787.08,998.6000
787.34,978.8000
787.60,1020.4000
787.86,998.0000
788.11,992.0000
788.37,994.0000
788.63,994.6000
788.88,1032.6000
789.14,1002.6000
789.40,994.8000
789.65,1009.2000
789.91,1017.4000
790.17,974.0000
790.42,988.2000
790.68,995.8000
790.94,984.8000
791.20,1026.0000
791.45,1016.0000
791.71,999.8000
791.97,987.6000
792.22,1010.0000
792.48,1004.4000
792.73,975.4000
792.99,1007.6000
793.25,968.8000
793.50,1000.0000
793.76,1007.4000
794.02,977.0000
794.27,987.2000
794.53,1004.4000
794.79,991.6000
795.04,1000.0000
795.30,984.0000
795.55,996.6000
795.81,968.6000
796.07,1004.4000
796.32,1002.6000
796.58,986.6000
796.84,994.0000
797.09,987.6000
797.35,996.8000
797.60,1001.0000
797.86,995.0000
798.12,1011.6000
798.37,1008.0000
798.63,988.2000
798.88,985.0000
799.14,998.8000
799.39,980.8000
799.65,1011.2000
799.91,968.6000
800.16,996.0000
800.42,988.0000
800.67,1013.4000
800.93,1013.4000
801.18,965.6000
801.44,1004.8000
801.70,1003.4000
801.95,995.4000
802.21,994.6000
802.46,987.4000
802.72,995.6000
802.97,1012.0000
803.23,1012.8000
803.48,998.8000
803.74,978.6000
803.99,966.8000
804.25,992.6000
804.50,1014.0000
804.76,990.2000
805.02,988.0000
805.27,1004.0000
805.53,1003.6000
805.78,981.4000
806.04,1004.2000
806.29,975.8000
806.55,1010.0000
806.80,993.8000
807.06,1035.2000
807.31,983.8000
807.56,992.4000
807.82,1006.0000
808.07,1017.0000
808.33,990.0000
808.58,990.8000
808.84,1012.0000
809.09,1002.2000
809.35,1016.4000
809.60,985.0000
809.86,993.2000
810.11,1016.4000
810.37,989.6000
810.62,978.4000
810.88,979.0000
811.13,1009.2000
811.38,982.8000
811.64,998.4000
811.89,993.2000
812.15,981.2000
812.40,993.4000
812.66,1003.2000
812.91,1000.8000
813.16,988.8000
813.42,995.4000
813.67,1004.2000
813.93,986.6000
814.18,1002.2000
814.44,1017.6000
814.69,992.0000
814.94,998.2000
815.20,993.2000
815.45,973.6000
815.71,985.8000
815.96,972.4000
816.21,993.8000
816.47,995.6000
816.72,974.2000
816.97,987.8000
817.23,978.0000
817.48,969.8000
817.74,995.0000
817.99,997.2000
818.24,1014.6000
818.50,991.0000
818.75,1023.6000
819.00,993.6000
819.26,1012.0000
819.51,1036.8000
819.76,975.4000
820.02,985.2000
820.27,996.0000
820.52,965.4000
820.78,979.8000
821.03,999.8000
821.28,1021.8000
821.54,990.6000
821.79,990.8000
822.04,989.6000
822.30,976.0000
822.55,1015.0000
822.80,996.6000
823.06,978.6000
823.31,988.6000
823.56,1000.6000
823.82,994.2000
824.07,989.8000
824.32,979.8000
824.57,990.0000
824.83,1001.6000
825.08,1019.4000
825.33,1001.6000
825.59,966.6000
825.84,981.8000
826.09,981.8000
826.34,982.0000
826.60,987.2000
826.85,1000.2000
827.10,993.0000
827.35,1010.8000
827.61,974.8000
827.86,1006.4000
828.11,998.4000
828.36,975.6000
828.62,995.6000
828.87,1003.8000
829.12,988.6000
829.37,1001.0000
829.63,988.2000
829.88,1007.8000
830.13,992.8000
830.38,1005.2000
830.63,965.0000
830.89,984.6000
831.14,985.6000
831.39,989.4000
831.64,989.6000
831.89,1004.8000
832.15,977.2000
832.40,988.2000
832.65,1002.4000
832.90,991.0000
833.15,995.2000
833.41,1000.4000
833.66,1048.2000
833.91,1013.4000
834.16,995.8000
834.41,1005.2000
834.67,979.2000
834.92,1020.4000
835.17,981.0000
835.42,991.0000
835.67,991.2000
835.92,994.8000
836.17,984.2000
836.43,996.4000
836.68,1012.6000
836.93,974.6000
837.18,982.8000
837.43,976.6000
837.68,1002.0000
837.93,974.8000
838.19,987.8000
838.44,982.4000
838.69,996.0000
838.94,975.8000
839.19,982.2000
839.44,986.8000
839.69,1010.4000
839.94,980.4000
840.20,998.8000
840.45,1027.2000
840.70,1009.6000
840.95,988.4000
841.20,980.6000
841.45,982.4000
841.70,995.4000
841.95,986.2000
842.20,991.6000
842.45,1027.4000
842.70,1002.6000
842.95,976.2000
843.21,994.4000
843.46,990.2000
843.71,995.4000
843.96,1011.0000
844.21,981.0000
844.46,969.8000
844.71,994.4000
844.96,1027.4000
845.21,980.4000
845.46,974.0000
845.71,1005.4000
845.96,979.8000
846.21,1000.6000
846.46,1009.0000
846.71,985.2000
846.96,969.8000
847.21,1008.4000
847.46,998.2000
847.71,994.6000
847.96,984.2000
848.21,981.4000
848.46,992.0000
848.71,1010.4000
848.96,1003.8000
849.21,1002.2000
849.46,986.8000
849.71,995.0000
849.96,974.6000
850.21,981.2000
850.46,991.8000
850.71,980.8000
850.96,965.8000
851.21,989.0000
851.46,982.4000
851.71,981.2000
851.96,963.4000
852.21,973.2000
852.46,978.6000
852.71,992.0000
852.96,991.6000
853.21,999.4000
853.46,1000.4000
853.71,1012.2000
853.96,986.4000
854.21,980.8000
854.46,1026.2000
854.70,988.0000
854.95,993.4000
855.20,977.4000
855.45,1005.8000
855.70,1001.4000
855.95,989.8000
856.20,995.2000
856.45,982.4000
856.70,992.2000
856.95,1005.0000
857.20,984.8000
857.44,1015.8000
857.69,985.0000
857.94,988.0000
858.19,1005.2000
858.44,987.4000
858.69,987.8000
858.94,1006.6000
859.19,996.8000
859.44,995.2000
859.68,1004.6000
859.93,978.2000
860.18,977.8000
860.43,995.6000
860.68,1021.8000
860.93,1000.0000
861.18,990.6000
861.42,1002.6000
861.67,991.6000
861.92,1005.6000
862.17,1009.0000
862.42,1009.6000
862.67,998.6000
862.91,1001.4000
863.16,1001.8000
863.41,1004.6000
863.66,1013.2000
863.91,1015.0000
864.16,1013.2000
864.40,974.8000
864.65,1000.8000
864.90,976.0000
865.15,979.8000
865.40,988.4000
865.64,994.4000
865.89,1006.4000
866.14,1002.6000
866.39,987.2000
866.64,994.0000
866.88,963.0000
867.13,1010.2000
867.38,1005.6000
867.63,969.8000
867.87,984.6000
868.12,1001.6000
868.37,1009.0000
868.62,965.6000
868.86,981.4000
869.11,978.0000
869.36,1000.6000
869.61,1000.4000
869.85,989.0000
870.10,1027.6000
870.35,1001.4000
870.60,993.6000
870.84,984.2000
871.09,980.2000
871.34,988.0000
871.59,987.2000
871.83,1012.2000
872.08,1011.0000
872.33,961.8000
872.57,995.2000
872.82,1003.0000
873.07,987.0000
873.32,1012.6000
873.56,997.4000
873.81,993.4000
874.06,1002.0000
874.30,979.6000
874.55,1001.6000
874.80,992.4000
875.04,1016.4000
875.29,987.6000
875.54,1004.0000
875.78,982.8000
876.03,996.0000
876.28,996.4000
876.52,974.6000
876.77,979.8000
877.02,997.2000
877.26,989.4000
877.51,980.0000
877.76,998.0000
878.00,996.0000
878.25,1001.4000
878.50,1001.4000
878.74,991.6000
878.99,1000.2000
879.23,976.2000
879.48,983.6000
879.73,994.0000
879.97,1003.6000
880.22,980.6000
880.47,993.8000
880.71,965.4000
880.96,1009.8000
881.20,982.2000
881.45,987.8000
881.70,990.6000
881.94,994.8000
882.19,981.2000
882.43,1011.4000
882.68,981.0000
882.92,1022.8000
883.17,992.2000
883.42,1006.4000
883.66,1004.0000
883.91,982.0000
884.15,987.0000
884.40,993.8000
884.64,987.0000
884.89,1006.6000
885.14,993.6000
885.38,1000.4000
885.63,1001.6000
885.87,991.2000
886.12,998.0000
886.36,1005.8000
886.61,1001.0000
886.85,984.6000
887.10,992.6000
887.34,991.6000
887.59,997.2000
887.83,985.4000
888.08,994.0000
888.32,972.2000
888.57,1019.8000
888.81,1003.6000
889.06,1004.6000
889.30,988.0000
889.55,990.0000
889.79,981.6000
890.04,1003.2000
890.28,983.0000
890.53,999.2000
890.77,1028.8000
891.02,985.2000
891.26,1005.4000
891.51,991.8000
891.75,993.2000
892.00,991.6000
892.24,997.2000
892.49,981.0000
892.73,1005.2000
892.98,994.0000
893.22,991.4000
893.47,977.0000
893.71,1010.4000
893.95,1003.8000
894.20,979.0000
894.44,989.4000
894.69,1028.4000
894.93,1036.2000
895.18,988.4000
895.42,1009.0000
895.66,999.6000
895.91,983.4000
896.15,974.6000
896.40,1009.6000
896.64,1012.8000
896.88,978.8000
897.13,1015.0000
897.37,991.6000
897.62,994.8000
897.86,1014.8000
898.10,992.2000
898.35,990.2000
898.59,1005.0000
898.84,1021.2000
899.08,993.8000
899.32,999.4000
899.57,1007.8000
899.81,974.4000
900.05,979.6000
900.30,993.4000
900.54,987.2000
900.78,1029.6000
901.03,1014.0000
901.27,988.4000
901.52,980.6000
901.76,983.8000
902.00,999.2000
902.25,986.8000
902.49,970.0000
902.73,1006.2000
902.98,992.2000
903.22,998.4000
903.46,989.2000
903.70,990.8000
903.95,990.0000
904.19,1010.0000
904.43,1018.6000
904.68,984.2000
904.92,990.0000
905.16,990.8000
905.41,998.8000
905.65,975.0000
905.89,983.0000
906.13,1021.8000
906.38,992.4000
906.62,1008.6000
906.86,974.4000
907.11,983.6000
907.35,991.4000
907.59,1006.8000
907.83,1032.4000
908.08,992.0000
908.32,982.4000
908.56,1004.6000
908.80,1000.4000
909.05,1013.2000
909.29,1007.8000
909.53,983.8000
909.77,999.2000
910.02,980.8000
910.26,1025.4000
910.50,990.4000
910.74,999.6000
910.98,997.2000
911.23,1024.8000
911.47,994.8000
911.71,1001.2000
911.95,984.2000
912.20,999.6000
912.44,978.2000
912.68,998.6000
912.92,993.0000
913.16,1006.6000
913.41,965.6000
913.65,1004.2000
913.89,999.2000
914.13,997.0000
914.37,985.8000
914.61,1015.4000
914.86,983.6000
915.10,999.4000
915.34,1005.6000
915.58,982.2000
915.82,979.8000
916.06,989.8000
916.31,988.0000
916.55,986.2000
916.79,1007.0000
917.03,1007.0000
917.27,992.0000
917.51,1007.4000
917.75,993.2000
918.00,984.6000
918.24,1017.6000
918.48,998.6000
918.72,1044.4000
918.96,986.2000
919.20,1014.8000
919.44,1026.8000
919.68,1043.4000
919.92,1017.2000
920.17,990.4000
920.41,987.8000
920.65,1000.0000
920.89,990.8000
921.13,995.8000
921.37,1012.4000
921.61,965.6000
921.85,993.4000
922.09,998.6000
922.33,1009.2000
922.57,1004.4000
922.81,969.8000
923.05,1000.4000
923.30,992.0000
923.54,993.6000
923.78,981.6000
924.02,1010.0000
924.26,989.2000
924.50,991.2000
924.74,1008.6000
924.98,985.8000
925.22,1000.6000
925.46,992.2000
925.70,994.6000
925.94,1029.8000
926.18,996.2000
926.42,1003.4000
926.66,1005.0000
926.90,989.8000
927.14,980.2000
927.38,989.6000
927.62,978.2000
927.86,1028.0000
928.10,1018.6000
928.34,978.6000
928.58,977.8000
928.82,999.2000
929.06,1001.4000
929.30,1027.8000
929.54,999.8000
929.78,977.4000
930.02,970.8000
930.26,993.6000
930.50,986.4000
930.74,997.8000
930.98,1002.2000
931.22,1005.8000
931.46,995.8000
931.70,989.8000
931.94,1011.4000
932.17,988.6000
932.41,1005.0000
932.65,991.2000
932.89,980.6000
933.13,990.8000
933.37,1006.4000
933.61,967.8000
933.85,993.2000
934.09,974.0000
934.33,983.0000
934.57,977.0000
934.81,986.4000
935.05,996.6000
935.28,997.2000
935.52,982.0000
935.76,984.0000
936.00,1000.8000
936.24,1004.8000
936.48,992.8000
936.72,996.6000
936.96,993.0000
937.19,1001.8000
937.43,1015.0000
937.67,992.6000
937.91,985.6000
938.15,982.6000
938.39,984.0000
938.63,982.2000
938.86,988.6000
939.10,987.4000
939.34,985.8000
939.58,968.6000
939.82,974.0000
940.06,982.6000
940.30,981.0000
940.53,974.4000
940.77,971.4000
941.01,964.4000
941.25,972.6000
