Wavelength (nm),Intensity
394.27,1022.2000
394.56,1002.6000
394.85,1012.6000
395.14,1004.2000
395.44,1013.4000
395.73,1011.4000
396.02,986.4000
396.31,994.8000
396.61,1006.0000
396.90,986.2000
397.19,1011.4000
397.48,1009.4000
397.77,983.2000
398.06,993.6000
398.36,1006.2000
398.65,990.4000
398.94,995.6000
399.23,995.8000
399.52,990.2000
399.82,1001.6000
400.11,994.2000
400.40,1008.8000
400.69,993.4000
400.98,999.0000
401.27,1022.0000
401.57,981.0000
401.86,995.4000
402.15,998.2000
402.44,993.2000
402.73,989.2000
403.02,1017.2000
403.32,989.6000
403.61,990.0000
403.90,1000.0000
404.19,1008.8000
404.48,1020.0000
404.77,1013.4000
405.06,1027.4000
405.36,1027.4000
405.65,1007.0000
405.94,984.8000
406.23,1000.2000
406.52,1021.4000
406.81,1024.4000
407.10,1009.6000
407.40,997.4000
407.69,1001.4000
407.98,1008.6000
408.27,1007.4000
408.56,992.0000
408.85,1029.6000
409.14,994.4000
409.43,1020.4000
409.72,997.4000
410.02,1032.6000
410.31,1005.8000
410.60,1005.0000
410.89,1011.8000
411.18,1001.6000
411.47,994.0000
411.76,1008.0000
412.05,995.8000
412.34,1004.0000
412.63,993.0000
412.93,1041.4000
413.22,1010.6000
413.51,990.8000
413.80,1014.2000
414.09,994.8000
414.38,992.0000
414.67,1007.8000
414.96,990.8000
415.25,1040.8000
415.54,1010.4000
415.83,978.6000
416.12,996.8000
416.41,971.6000
416.70,998.4000
417.00,1006.6000
417.29,1007.8000
417.58,1002.8000
417.87,1010.0000
418.16,1022.0000
418.45,989.2000
418.74,993.8000
419.03,995.2000
419.32,1035.0000
419.61,1014.4000
419.90,1012.4000
420.19,1007.4000
420.48,994.0000
420.77,977.0000
421.06,985.4000
421.35,1000.2000
421.64,1009.4000
421.93,985.6000
422.22,996.4000
422.51,1013.4000
422.80,993.8000
423.09,992.0000
423.38,1032.0000
423.67,1002.8000
423.96,994.6000
424.25,992.4000
424.54,1000.4000
424.83,981.0000
425.12,988.8000
425.41,999.8000
425.70,1046.8000
425.99,998.4000
426.28,1004.2000
426.57,1002.6000
426.86,992.2000
427.15,1008.4000
427.44,1017.4000
427.73,1013.6000
428.02,993.4000
428.31,1013.2000
428.60,1014.0000
428.89,1008.6000
429.18,1006.8000
429.47,1015.4000
429.76,998.4000
430.05,991.6000
430.34,1021.6000
430.63,999.8000
430.92,1022.2000
431.21,1013.8000
431.50,987.4000
431.79,998.0000
432.08,988.4000
432.37,987.8000
432.66,999.4000
432.94,1000.8000
433.23,998.0000
433.52,1015.2000
433.81,1007.0000
434.10,1058.0000
434.39,1000.0000
434.68,1030.0000
434.97,981.8000
435.26,993.8000
435.55,1008.6000
435.84,994.8000
436.13,993.2000
436.42,1028.6000
436.71,1006.4000
436.99,990.0000
437.28,1002.8000
437.57,1006.4000
437.86,997.0000
438.15,1008.4000
438.44,982.8000
438.73,997.0000
439.02,1020.0000
439.31,1026.6000
439.60,1000.4000
439.88,1004.0000
440.17,996.8000
440.46,1005.4000
440.75,977.0000
441.04,981.2000
441.33,1013.6000
441.62,999.6000
441.91,980.4000
442.20,1003.6000
442.48,1000.8000
442.77,979.0000
443.06,1005.8000
443.35,978.6000
443.64,998.8000
443.93,983.0000
444.22,998.8000
444.50,1000.6000
444.79,1014.6000
445.08,1013.4000
445.37,1011.4000
445.66,994.0000
445.95,988.8000
446.24,983.0000
446.52,993.6000
446.81,1022.8000
447.10,984.4000
447.39,1009.8000
447.68,983.2000
447.97,991.2000
448.25,1015.4000
448.54,1015.8000
448.83,1015.4000
449.12,1024.4000
449.41,1004.0000
449.69,1004.4000
449.98,993.2000
450.27,1003.4000
450.56,988.0000
450.85,1001.2000
451.14,981.0000
451.42,1000.8000
451.71,1007.0000
452.00,993.6000
452.29,1009.2000
452.58,996.6000
452.86,1000.6000
453.15,989.0000
453.44,990.0000
453.73,1004.8000
454.01,981.0000
454.30,1048.2000
454.59,981.4000
454.88,988.8000
455.17,987.6000
455.45,1003.6000
455.74,1021.2000
456.03,1004.0000
456.32,1002.2000
456.60,983.6000
456.89,996.6000
457.18,991.4000
457.47,989.8000
457.76,997.4000
458.04,991.2000
458.33,994.8000
458.62,994.2000
458.91,981.8000
459.19,980.4000
459.48,975.6000
459.77,984.8000
460.06,997.2000
460.34,996.6000
460.63,998.4000
460.92,1004.8000
461.20,994.8000
461.49,995.2000
461.78,976.8000
462.07,988.6000
462.35,1003.4000
462.64,995.2000
462.93,997.0000
463.22,1009.6000
463.50,1004.2000
463.79,1001.6000
464.08,1012.6000
464.36,999.6000
464.65,998.4000
464.94,998.6000
465.22,999.6000
465.51,1000.2000
465.80,1028.4000
466.09,986.0000
466.37,1009.0000
466.66,1012.0000
466.95,986.2000
467.23,992.6000
467.52,1000.0000
467.81,1022.6000
468.09,984.6000
468.38,1000.4000
468.67,1023.6000
468.95,999.4000
469.24,986.2000
469.53,995.6000
469.81,1003.2000
470.10,1001.6000
470.39,1002.8000
470.67,986.0000
470.96,999.0000
471.25,996.2000
471.53,1008.2000
471.82,992.4000
472.11,992.0000
472.39,984.6000
472.68,993.0000
472.97,985.8000
473.25,993.6000
473.54,991.0000
473.82,992.2000
474.11,996.6000
474.40,1001.8000
474.68,1021.4000
474.97,1017.2000
475.26,1005.4000
475.54,982.0000
475.83,1000.2000
476.11,997.2000
476.40,1011.6000
476.69,1002.6000
476.97,1004.2000
477.26,995.2000
477.55,1026.4000
477.83,984.8000
478.12,995.6000
478.40,993.2000
478.69,992.2000
478.98,985.2000
479.26,989.2000
479.55,998.4000
479.83,989.4000
480.12,1006.6000
480.40,1005.6000
480.69,989.0000
480.98,988.2000
481.26,1016.0000
481.55,993.0000
481.83,998.8000
482.12,993.6000
482.41,997.2000
482.69,980.2000
482.98,1002.6000
483.26,1017.6000
483.55,998.2000
483.83,980.0000
484.12,990.0000
484.40,993.0000
484.69,967.0000
484.98,995.6000
485.26,989.8000
485.55,994.2000
485.83,971.2000
486.12,1003.6000
486.40,993.6000
486.69,995.0000
486.97,991.4000
487.26,987.0000
487.54,996.6000
487.83,984.6000
488.11,988.4000
488.40,1022.6000
488.68,1010.8000
488.97,1004.4000
489.26,1004.8000
489.54,1001.0000
489.83,993.4000
490.11,992.0000
490.40,1007.8000
490.68,999.4000
490.97,972.8000
491.25,992.6000
491.54,987.0000
491.82,1012.2000
492.11,996.6000
492.39,1023.2000
492.68,997.6000
492.96,1019.6000
493.24,985.6000
493.53,992.0000
493.81,1026.6000
494.10,992.2000
494.38,982.8000
494.67,999.4000
494.95,1008.8000
495.24,974.2000
495.52,1014.8000
495.81,1001.6000
496.09,1007.2000
496.38,978.2000
496.66,1001.4000
496.95,994.6000
497.23,996.6000
497.51,981.0000
497.80,988.2000
498.08,986.8000
498.37,981.8000
498.65,1006.0000
498.94,1025.2000
499.22,990.0000
499.51,989.0000
499.79,993.4000
500.07,972.8000
500.36,1012.8000
500.64,1010.2000
500.93,985.0000
501.21,1026.0000
501.50,988.4000
501.78,1005.2000
502.06,975.4000
502.35,985.6000
502.63,978.8000
502.92,990.8000
503.20,1018.8000
503.48,1026.2000
503.77,998.6000
504.05,1012.6000
504.34,975.2000
504.62,1018.6000
504.90,1008.8000
505.19,1015.8000
505.47,994.8000
505.76,988.4000
506.04,995.2000
506.32,1015.0000
506.61,981.2000
506.89,1012.2000
507.17,992.8000
507.46,998.2000
507.74,1026.4000
508.03,993.6000
508.31,1010.4000
508.59,983.0000
508.88,993.8000
509.16,1033.6000
509.44,997.0000
509.73,1002.0000
510.01,1006.0000
510.29,989.2000
510.58,982.0000
510.86,1001.4000
511.14,1014.0000
511.43,1000.4000
511.71,1005.6000
511.99,1010.2000
512.28,993.6000
512.56,970.4000
512.84,991.4000
513.13,986.8000
513.41,991.2000
513.69,1004.0000
513.98,967.2000
514.26,999.4000
514.54,997.2000
514.83,1001.2000
515.11,1003.6000
515.39,1009.8000
515.68,1003.0000
515.96,994.4000
516.24,971.8000
516.53,991.2000
516.81,1029.4000
517.09,987.6000
517.37,992.6000
517.66,987.4000
517.94,977.6000
518.22,993.2000
518.51,979.0000
518.79,994.2000
519.07,983.8000
519.35,1000.2000
519.64,1003.0000
519.92,1010.0000
520.20,1009.0000
520.48,1006.0000
520.77,988.6000
521.05,983.0000
521.33,965.2000
521.62,986.8000
521.90,997.6000
522.18,981.8000
522.46,993.0000
522.75,983.2000
523.03,1010.4000
523.31,986.4000
523.59,1014.0000
523.88,1005.0000
524.16,989.0000
524.44,1016.8000
524.72,1019.0000
525.00,1014.0000
525.29,988.4000
525.57,993.0000
525.85,1007.0000
526.13,974.4000
526.42,974.6000
526.70,992.8000
526.98,971.6000
527.26,988.6000
527.54,991.4000
527.83,992.8000
528.11,982.8000
528.39,1008.0000
528.67,1010.4000
528.95,991.8000
529.24,987.6000
529.52,1008.4000
529.80,1001.0000
530.08,1001.2000
530.36,996.0000
530.65,1027.8000
530.93,992.2000
531.21,988.0000
531.49,980.2000
531.77,1000.2000
532.05,993.2000
532.34,1004.2000
532.62,985.0000
532.90,1002.4000
533.18,1003.4000
533.46,996.6000
533.74,986.8000
534.03,989.8000
534.31,996.0000
534.59,1004.0000
534.87,1002.6000
535.15,996.4000
535.43,1006.6000
535.71,999.0000
536.00,1007.8000
536.28,984.6000
536.56,993.4000
536.84,996.6000
537.12,993.6000
537.40,997.0000
537.68,1001.8000
537.97,1002.6000
538.25,977.8000
538.53,998.6000
538.81,1003.4000
539.09,974.2000
539.37,995.8000
539.65,993.8000
539.93,986.6000
540.21,985.8000
540.50,966.8000
540.78,1002.6000
541.06,1003.8000
541.34,1007.0000
541.62,997.6000
541.90,1016.2000
542.18,978.4000
542.46,1001.8000
542.74,994.6000
543.02,994.2000
543.30,993.6000
543.58,1005.8000
543.87,1002.6000
544.15,990.8000
544.43,1007.4000
544.71,1002.6000
544.99,1001.8000
545.27,987.4000
545.55,976.2000
545.83,993.8000
546.11,989.0000
546.39,992.2000
546.67,1010.4000
546.95,987.4000
547.23,987.0000
547.51,982.8000
547.79,1008.0000
548.07,989.0000
548.35,980.0000
548.63,981.6000
548.91,1011.0000
549.20,989.6000
549.48,1028.0000
549.76,982.2000
550.04,995.4000
550.32,999.8000
550.60,979.4000
550.88,975.4000
551.16,1001.2000
551.44,1005.8000
551.72,974.6000
552.00,983.8000
552.28,997.0000
552.56,1020.2000
552.84,1008.4000
553.12,1009.8000
553.40,989.4000
553.68,1008.2000
553.96,996.4000
554.24,987.8000
554.52,996.2000
554.80,994.2000
555.08,999.0000
555.36,977.4000
555.64,1006.6000
555.92,999.0000
556.19,991.6000
556.47,993.6000
556.75,999.0000
557.03,992.2000
557.31,1009.6000
557.59,1005.4000
557.87,980.2000
558.15,999.2000
558.43,985.0000
558.71,987.4000
558.99,992.0000
559.27,1007.0000
559.55,984.6000
559.83,980.0000
560.11,992.8000
560.39,981.8000
560.67,992.2000
560.95,1014.8000
561.23,985.4000
561.50,989.0000
561.78,973.4000
562.06,993.8000
562.34,986.0000
562.62,988.0000
562.90,1001.8000
563.18,1009.6000
563.46,984.2000
563.74,989.8000
564.02,1016.6000
564.30,989.8000
564.57,994.6000
564.85,977.4000
565.13,1014.6000
565.41,974.6000
565.69,1000.6000
565.97,996.6000
566.25,985.6000
566.53,989.4000
566.81,1005.6000
567.08,1009.4000
567.36,981.0000
567.64,991.4000
567.92,1008.0000
568.20,977.0000
568.48,991.2000
568.76,991.6000
569.04,1002.6000
569.31,1009.0000
569.59,1009.2000
569.87,1000.6000
570.15,984.4000
570.43,1000.2000
570.71,997.8000
570.99,998.6000
571.26,1003.8000
571.54,1007.0000
571.82,988.6000
572.10,995.0000
572.38,997.6000
572.66,1005.0000
572.93,1000.8000
573.21,979.6000
573.49,998.6000
573.77,1011.6000
574.05,966.8000
574.32,971.4000
574.60,992.8000
574.88,996.2000
575.16,1017.4000
575.44,996.0000
575.71,996.6000
575.99,1051.4000
576.27,1013.2000
576.55,994.0000
576.83,1013.0000
577.10,997.2000
577.38,1000.6000
577.66,978.2000
577.94,995.4000
578.22,989.0000
578.49,1008.8000
578.77,998.6000
579.05,1022.0000
579.33,999.0000
579.60,1002.2000
579.88,998.6000
580.16,991.0000
580.44,1004.2000
580.72,993.0000
580.99,991.2000
581.27,993.8000
581.55,1000.6000
581.83,994.6000
582.10,999.8000
582.38,1005.0000
582.66,1009.2000
582.94,989.0000
583.21,1019.8000
583.49,1004.8000
583.77,996.6000
584.04,1007.2000
584.32,1005.8000
584.60,1001.6000
584.88,987.8000
585.15,1014.8000
585.43,977.6000
585.71,970.2000
585.98,984.0000
586.26,979.4000
586.54,995.0000
586.82,997.0000
587.09,979.2000
587.37,1013.0000
587.65,974.6000
587.92,989.6000
588.20,1004.2000
588.48,1029.0000
588.75,978.4000
589.03,985.8000
589.31,990.2000
589.59,987.8000
589.86,1015.8000
590.14,1006.0000
590.42,1007.6000
590.69,1001.6000
590.97,977.6000
591.25,983.2000
591.52,986.6000
591.80,1024.6000
592.08,1002.2000
592.35,997.2000
592.63,1001.8000
592.91,997.6000
593.18,995.2000
593.46,993.8000
593.73,993.8000
594.01,1005.8000
594.29,1020.2000
594.56,988.2000
594.84,1001.0000
595.12,1020.2000
595.39,996.6000
595.67,992.4000
595.95,990.6000
596.22,992.4000
596.50,976.8000
596.77,984.4000
597.05,1003.0000
597.33,1005.8000
597.60,992.4000
597.88,999.2000
598.15,1003.2000
598.43,985.2000
598.71,990.2000
598.98,1053.2000
599.26,1020.2000
599.53,987.0000
599.81,1002.4000
600.09,990.0000
600.36,993.0000
600.64,994.2000
600.91,983.0000
601.19,989.4000
601.47,996.2000
601.74,984.4000
602.02,984.2000
602.29,997.2000
602.57,1011.0000
602.84,990.0000
603.12,982.8000
603.40,991.6000
603.67,990.6000
603.95,1007.6000
604.22,1030.4000
604.50,1001.4000
604.77,1007.6000
605.05,993.8000
605.32,992.0000
605.60,1006.6000
605.87,989.8000
606.15,996.0000
606.42,987.8000
606.70,980.8000
606.98,1001.6000
607.25,998.6000
607.53,994.6000
607.80,996.4000
608.08,992.2000
608.35,994.8000
608.63,980.0000
608.90,1002.4000
609.18,990.2000
609.45,977.6000
609.73,997.6000
610.00,1018.6000
610.28,992.6000
610.55,993.0000
610.83,981.8000
611.10,1004.0000
611.38,994.0000
611.65,1003.2000
611.93,979.4000
612.20,998.6000
612.48,967.4000
612.75,995.2000
613.03,989.0000
613.30,988.6000
613.57,996.4000
613.85,999.0000
614.12,1009.0000
614.40,986.4000
614.67,996.6000
614.95,1005.2000
615.22,982.0000
615.50,970.6000
615.77,1017.0000
616.05,1001.0000
616.32,1006.0000
616.59,1006.0000
616.87,995.4000
617.14,1007.2000
617.42,992.4000
617.69,1011.2000
617.97,987.2000
618.24,989.6000
618.51,973.6000
618.79,994.8000
619.06,987.0000
619.34,1008.2000
619.61,985.4000
619.88,1025.8000
620.16,1002.6000
620.43,1016.2000
620.71,975.8000
620.98,987.6000
621.26,990.6000
621.53,987.0000
621.80,996.0000
622.08,992.8000
622.35,990.8000
622.62,998.0000
622.90,1009.8000
623.17,995.4000
623.45,1003.0000
623.72,1005.6000
623.99,979.0000
624.27,999.4000
624.54,1014.2000
624.81,1016.2000
625.09,1004.8000
625.36,1007.2000
625.64,1021.2000
625.91,1005.0000
626.18,987.8000
626.46,989.8000
626.73,1040.2000
627.00,1018.0000
627.28,977.4000
627.55,997.4000
627.82,992.6000
628.10,1005.2000
628.37,980.8000
628.64,988.6000
628.92,976.8000
629.19,985.2000
629.46,990.4000
629.74,974.8000
630.01,1004.2000
630.28,994.6000
630.56,992.4000
630.83,975.4000
631.10,997.2000
631.37,998.0000
631.65,988.4000
631.92,990.4000
632.19,997.6000
632.47,1009.6000
632.74,995.0000
633.01,1012.4000
633.28,989.8000
633.56,993.0000
633.83,971.6000
634.10,988.0000
634.38,984.4000
634.65,999.4000
634.92,991.8000
635.19,1022.2000
635.47,991.2000
635.74,984.6000
636.01,980.0000
636.28,972.4000
636.56,998.6000
636.83,988.6000
637.10,1020.0000
637.37,1002.2000
637.65,982.4000
637.92,990.2000
638.19,989.0000
638.46,1009.0000
638.74,987.6000
639.01,1015.8000
639.28,974.8000
639.55,1009.8000
639.83,985.0000
640.10,982.4000
640.37,1004.4000
640.64,979.6000
640.91,995.6000
641.19,988.8000
641.46,998.4000
641.73,1016.2000
642.00,994.8000
642.28,1008.2000
642.55,991.8000
642.82,985.6000
643.09,1004.2000
643.36,1004.2000
643.63,999.2000
643.91,992.4000
644.18,999.0000
644.45,990.0000
644.72,1015.2000
644.99,981.0000
645.27,975.6000
645.54,997.6000
645.81,1039.0000
646.08,1007.0000
646.35,974.0000
646.62,990.0000
646.90,993.4000
647.17,1013.0000
647.44,996.2000
647.71,1010.4000
647.98,977.8000
648.25,1004.8000
648.52,980.2000
648.80,981.4000
649.07,987.4000
649.34,1000.2000
649.61,986.6000
649.88,1014.0000
650.15,999.8000
650.42,995.4000
650.69,999.4000
650.97,1003.8000
651.24,1002.2000
651.51,1004.2000
651.78,1007.8000
652.05,977.2000
652.32,991.4000
652.59,1021.6000
652.86,987.0000
653.13,988.4000
653.41,996.0000
653.68,1004.4000
653.95,1007.8000
654.22,997.6000
654.49,996.0000
654.76,981.0000
655.03,1008.4000
655.30,981.4000
655.57,989.0000
655.84,1006.0000
656.11,1016.2000
656.38,981.8000
656.66,986.8000
656.93,987.4000
657.20,989.4000
657.47,1023.0000
657.74,997.4000
658.01,1014.0000
658.28,986.6000
658.55,989.6000
658.82,1006.4000
659.09,1006.8000
659.36,1003.4000
659.63,992.8000
659.90,1003.6000
660.17,1015.4000
660.44,993.0000
660.71,989.8000
660.98,1003.4000
661.25,1001.2000
661.52,998.2000
661.79,992.6000
662.06,999.0000
662.33,984.6000
662.60,976.6000
662.87,1011.4000
663.14,981.8000
663.41,1006.0000
663.68,974.6000
663.95,976.0000
664.22,1001.8000
664.49,1008.0000
664.76,985.8000
665.03,990.0000
665.30,988.4000
665.57,983.0000
665.84,990.6000
666.11,994.6000
666.38,984.8000
666.65,986.0000
666.92,1028.2000
667.19,988.8000
667.46,1003.4000
667.73,1008.6000
668.00,985.6000
668.27,998.6000
668.54,1013.4000
668.81,991.0000
669.08,1004.2000
669.35,992.8000
669.62,1020.2000
669.89,992.4000
670.16,1009.2000
670.42,986.0000
670.69,988.8000
670.96,1005.6000
671.23,986.2000
671.50,978.6000
671.77,979.2000
672.04,996.4000
672.31,993.6000
672.58,980.4000
672.85,988.6000
673.12,984.6000
673.39,999.6000
673.65,981.8000
673.92,1013.8000
674.19,986.2000
674.46,996.6000
674.73,1002.0000
675.00,980.2000
675.27,991.2000
675.54,1005.8000
675.81,1000.4000
676.07,986.2000
676.34,1026.8000
676.61,1007.8000
676.88,983.0000
677.15,997.6000
677.42,996.0000
677.69,993.0000
677.96,998.8000
678.22,995.6000
678.49,983.8000
678.76,991.6000
679.03,989.6000
679.30,985.0000
679.57,975.8000
679.83,1007.8000
680.10,990.8000
680.37,997.8000
680.64,1014.4000
680.91,981.4000
681.18,998.0000
681.44,983.2000
681.71,980.8000
681.98,1001.6000
682.25,1002.4000
682.52,999.2000
682.79,997.4000
683.05,1015.0000
683.32,993.2000
683.59,1008.6000
683.86,1002.6000
684.13,1009.4000
684.39,983.4000
684.66,998.6000
684.93,1002.6000
685.20,991.4000
685.47,984.8000
685.73,1005.2000
686.00,985.6000
686.27,1000.6000
686.54,992.0000
686.80,1013.6000
687.07,1003.6000
687.34,968.6000
687.61,984.0000
687.88,982.6000
688.14,988.2000
688.41,1013.0000
688.68,974.4000
688.95,976.0000
689.21,990.2000
689.48,1029.4000
689.75,997.8000
690.02,983.6000
690.28,973.8000
690.55,989.0000
690.82,975.4000
691.08,998.2000
691.35,985.6000
691.62,1011.2000
691.89,1003.6000
692.15,997.6000
692.42,1000.6000
692.69,973.0000
692.95,984.4000
693.22,1003.2000
693.49,995.0000
693.76,1001.6000
694.02,998.2000
694.29,988.8000
694.56,993.2000
694.82,1016.0000
695.09,971.8000
695.36,986.0000
695.62,981.6000
695.89,1005.2000
696.16,982.6000
696.43,1015.8000
696.69,1011.2000
696.96,1021.0000
697.23,993.2000
697.49,1004.8000
697.76,1006.8000
698.03,986.2000
698.29,978.0000
698.56,1005.2000
698.82,988.6000
699.09,1006.4000
699.36,998.6000
699.62,991.8000
699.89,1002.4000
700.16,971.6000
700.42,1002.2000
700.69,1010.8000
700.96,996.0000
701.22,1005.0000
701.49,991.8000
701.75,1013.2000
702.02,986.4000
702.29,997.6000
702.55,983.0000
702.82,998.2000
703.09,996.8000
703.35,1006.6000
703.62,1012.4000
703.88,1026.4000
704.15,984.6000
704.42,997.8000
704.68,987.8000
704.95,1015.4000
705.21,982.0000
705.48,1004.2000
705.75,986.6000
706.01,999.6000
706.28,979.8000
706.54,991.8000
706.81,986.6000
707.07,994.2000
707.34,987.6000
707.61,997.8000
707.87,996.8000
708.14,997.6000
708.40,996.8000
708.67,1005.2000
708.93,1001.0000
709.20,990.6000
709.46,994.4000
709.73,1011.0000
709.99,993.0000
710.26,984.8000
710.53,982.8000
710.79,961.4000
711.06,996.4000
711.32,1067.4000
711.59,1023.0000
711.85,1014.2000
712.12,989.8000
712.38,976.2000
712.65,1003.6000
712.91,1000.6000
713.18,995.2000
713.44,1009.8000
713.71,992.0000
713.97,995.4000
714.24,991.2000
714.50,982.6000
714.77,996.0000
715.03,998.0000
715.30,1002.6000
715.56,1001.0000
715.83,992.6000
716.09,1002.2000
716.36,1036.4000
716.62,995.8000
716.89,983.4000
717.15,1023.6000
717.42,994.6000
717.68,981.6000
717.94,984.2000
718.21,988.2000
718.47,1010.8000
718.74,998.6000
719.00,1012.4000
719.27,999.6000
719.53,986.4000
719.80,1005.2000
720.06,1004.0000
720.32,1025.2000
720.59,1001.2000
720.85,1003.0000
721.12,971.4000
721.38,1004.0000
721.65,992.0000
721.91,987.8000
722.17,983.2000
722.44,1006.6000
722.70,1002.2000
722.97,984.6000
723.23,996.2000
723.49,997.2000
723.76,983.2000
724.02,1025.8000
724.29,1002.6000
724.55,989.4000
724.81,1009.2000
725.08,1006.2000
725.34,1002.8000
725.61,995.0000
725.87,1002.6000
726.13,987.8000
726.40,1007.4000
726.66,990.4000
726.92,998.8000
727.19,1005.8000
727.45,990.4000
727.71,1001.8000
727.98,985.4000
728.24,1006.0000
728.51,983.4000
728.77,992.0000
729.03,996.6000
729.30,998.0000
729.56,1003.6000
729.82,1020.6000
730.09,1005.2000
730.35,984.0000
730.61,999.6000
730.88,985.8000
731.14,997.6000
731.40,1009.2000
731.67,991.8000
731.93,996.0000
732.19,997.0000
732.45,1012.8000
732.72,986.4000
732.98,998.2000
733.24,987.4000
733.51,986.4000
733.77,995.4000
734.03,1002.2000
734.30,993.4000
734.56,1003.2000
734.82,966.4000
735.08,1010.8000
735.35,1000.6000
735.61,1008.6000
735.87,999.8000
736.14,1015.4000
736.40,1013.2000
736.66,998.0000
736.92,1002.6000
737.19,996.6000
737.45,1008.6000
737.71,993.8000
737.97,1004.0000
738.24,1006.8000
738.50,995.0000
738.76,1013.4000
739.02,978.0000
739.29,1007.0000
739.55,1019.8000
739.81,1002.2000
740.07,1003.6000
740.33,1003.6000
740.60,995.2000
740.86,1022.4000
741.12,998.8000
741.38,988.0000
741.65,1010.0000
741.91,987.0000
742.17,1006.0000
742.43,981.2000
742.69,982.2000
742.96,1003.6000
743.22,992.0000
743.48,1019.8000
743.74,1002.0000
744.00,999.2000
744.26,993.4000
744.53,986.8000
744.79,987.0000
745.05,998.6000
745.31,981.8000
745.57,1012.0000
745.84,1005.2000
746.10,987.2000
746.36,982.4000
746.62,995.8000
746.88,999.0000
747.14,1011.8000
747.40,994.6000
747.67,977.2000
747.93,1003.0000
748.19,989.4000
748.45,1009.8000
748.71,983.0000
748.97,1008.2000
749.23,1006.2000
749.50,1008.6000
749.76,988.2000
750.02,990.2000
750.28,1013.4000
750.54,980.8000
750.80,1004.6000
751.06,965.2000
751.32,987.6000
751.59,1001.2000
751.85,1004.0000
752.11,1012.6000
752.37,1024.0000
752.63,994.4000
752.89,1021.2000
753.15,1023.8000
753.41,984.8000
753.67,997.0000
753.93,999.4000
754.19,978.4000
754.46,1016.2000
754.72,977.0000
754.98,979.0000
755.24,1007.4000
755.50,978.6000
755.76,995.0000
756.02,1002.2000
756.28,987.2000
756.54,994.6000
756.80,1024.0000
757.06,1018.6000
757.32,976.4000
757.58,987.4000
757.84,1018.4000
758.10,975.8000
758.36,978.2000
758.62,973.6000
758.88,986.4000
759.14,1025.4000
759.40,999.6000
759.66,979.0000
759.92,1006.6000
760.18,986.6000
760.44,992.6000
760.70,992.4000
760.96,993.8000
761.22,1001.0000
761.48,978.6000
761.74,995.8000
762.00,988.8000
762.26,999.0000
762.52,994.8000
762.78,990.8000
763.04,992.8000
763.30,1017.2000
763.56,979.6000
763.82,979.2000
764.08,1003.8000
764.34,1007.8000
764.60,998.0000
764.86,999.8000
765.12,976.6000
765.38,996.0000
765.64,1007.8000
765.90,1025.2000
766.16,986.2000
766.42,996.4000
766.68,995.0000
766.94,987.4000
767.20,985.6000
767.46,982.2000
767.72,966.8000
767.98,1009.8000
768.23,997.6000
768.49,999.8000
768.75,1003.6000
769.01,1017.8000
769.27,981.4000
769.53,1010.2000
769.79,1010.4000
770.05,993.6000
770.31,985.4000
770.57,1025.4000
770.83,979.4000
771.08,1005.0000
771.34,975.8000
771.60,1004.8000
771.86,984.0000
772.12,983.2000
772.38,991.6000
772.64,993.0000
772.90,984.6000
773.16,1002.6000
773.41,1002.4000
773.67,976.8000
773.93,1002.0000
774.19,986.0000
774.45,1002.8000
774.71,1013.6000
774.97,986.2000
775.22,995.6000
775.48,992.4000
775.74,972.0000
776.00,998.6000
776.26,997.2000
776.52,973.6000
776.77,981.4000
777.03,1009.4000
777.29,981.6000
777.55,972.0000
777.81,981.2000
778.07,983.8000
778.32,986.8000
778.58,979.6000
778.84,992.8000
779.10,1002.0000
779.36,997.6000
779.61,991.2000
779.87,1005.4000
780.13,987.8000
780.39,997.4000
780.65,982.8000
780.90,998.6000
781.16,997.8000
781.42,986.0000
781.68,986.4000
781.94,997.4000
782.19,973.0000
782.45,1004.6000
782.71,997.6000
782.97,1001.8000
783.22,1007.6000
783.48,970.8000
783.74,984.4000
784.00,997.4000
784.25,998.2000
784.51,976.4000
784.77,1016.6000
785.03,993.4000
785.28,983.4000
785.54,980.0000
785.80,996.8000
786.06,988.4000
786.31,995.6000
786.57,987.4000
786.83,995.8000
787.08,1016.6000
787.34,978.8000
787.60,1009.4000
787.86,998.4000
788.11,992.4000
788.37,990.4000
788.63,999.8000
788.88,1028.8000
789.14,1003.0000
789.40,1001.6000
789.65,1006.0000
789.91,1000.0000
790.17,982.6000
790.42,994.2000
790.68,984.2000
790.94,998.4000
791.20,1026.0000
791.45,1022.4000
791.71,1008.0000
791.97,980.6000
792.22,1013.2000
792.48,1001.2000
792.73,971.6000
792.99,1008.4000
793.25,971.8000
793.50,990.4000
793.76,992.6000
794.02,973.2000
794.27,984.4000
794.53,1005.4000
794.79,995.6000
795.04,998.0000
795.30,995.4000
795.55,1006.0000
795.81,969.6000
796.07,1013.2000
796.32,998.8000
796.58,985.2000
796.84,989.6000
797.09,994.4000
797.35,1000.6000
797.60,1000.8000
797.86,1006.2000
798.12,1017.0000
798.37,1006.0000
798.63,993.0000
798.88,991.2000
799.14,985.0000
799.39,976.8000
799.65,1007.2000
799.91,970.6000
800.16,988.6000
800.42,994.2000
800.67,1014.2000
800.93,1002.6000
801.18,979.0000
801.44,998.2000
801.70,997.2000
801.95,999.0000
802.21,993.4000
802.46,993.0000
802.72,988.2000
802.97,1009.2000
803.23,1005.0000
803.48,993.6000
803.74,981.0000
803.99,983.4000
804.25,990.6000
804.50,1008.0000
804.76,995.6000
805.02,982.0000
805.27,996.6000
805.53,1008.2000
805.78,976.0000
806.04,1008.0000
806.29,979.8000
806.55,1009.4000
806.80,991.8000
807.06,1043.4000
807.31,971.6000
807.56,995.8000
807.82,1012.6000
808.07,1008.4000
808.33,998.2000
808.58,991.2000
808.84,1005.4000
809.09,993.2000
809.35,1016.4000
809.60,984.2000
809.86,997.2000
810.11,1009.6000
810.37,990.8000
810.62,984.4000
810.88,984.8000
811.13,999.6000
811.38,983.4000
811.64,1010.4000
811.89,989.4000
812.15,989.6000
812.40,991.2000
812.66,1011.8000
812.91,996.8000
813.16,977.0000
813.42,992.6000
813.67,1002.6000
813.93,979.4000
814.18,993.6000
814.44,1020.0000
814.69,995.2000
814.94,995.8000
815.20,985.0000
815.45,979.0000
815.71,999.8000
815.96,978.4000
816.21,991.4000
816.47,993.8000
816.72,985.4000
816.97,988.4000
817.23,981.8000
817.48,970.0000
817.74,990.4000
817.99,995.8000
818.24,1026.6000
818.50,995.0000
818.75,1018.0000
819.00,996.6000
819.26,1007.2000
819.51,1047.8000
819.76,976.4000
820.02,986.0000
820.27,988.0000
820.52,977.2000
820.78,976.8000
821.03,999.6000
821.28,1009.0000
821.54,986.8000
821.79,989.4000
822.04,992.2000
822.30,988.8000
822.55,1014.0000
822.80,1004.6000
823.06,978.8000
823.31,993.8000
823.56,1001.8000
823.82,998.8000
824.07,995.6000
824.32,990.4000
824.57,999.8000
824.83,997.6000
825.08,1010.8000
825.33,1000.8000
825.59,972.6000
825.84,977.6000
826.09,1001.4000
826.34,995.8000
826.60,1001.0000
826.85,992.8000
827.10,986.6000
827.35,1007.2000
827.61,979.0000
827.86,1004.2000
828.11,1002.8000
828.36,977.0000
828.62,994.6000
828.87,1013.6000
829.12,988.2000
829.37,1000.2000
829.63,970.0000
829.88,1005.2000
830.13,1002.0000
830.38,1005.8000
830.63,975.0000
830.89,982.8000
831.14,993.2000
831.39,993.4000
831.64,1003.6000
831.89,1002.2000
832.15,970.4000
832.40,984.0000
832.65,1000.2000
832.90,999.2000
833.15,993.6000
833.41,1013.0000
833.66,1036.2000
833.91,1006.6000
834.16,991.0000
834.41,1009.8000
834.67,971.0000
834.92,1002.2000
835.17,981.8000
835.42,989.2000
835.67,983.2000
835.92,988.8000
836.17,981.2000
836.43,991.8000
836.68,1010.4000
836.93,978.6000
837.18,995.0000
837.43,983.2000
837.68,1006.0000
837.93,971.8000
838.19,980.6000
838.44,982.2000
838.69,1010.6000
838.94,988.2000
839.19,974.4000
839.44,990.8000
839.69,991.0000
839.94,987.0000
840.20,1007.0000
840.45,1031.8000
840.70,1024.6000
840.95,996.8000
841.20,982.4000
841.45,994.0000
841.70,1005.4000
841.95,986.0000
842.20,999.8000
842.45,1026.4000
842.70,1007.0000
842.95,976.6000
843.21,991.2000
843.46,993.4000
843.71,991.6000
843.96,1018.0000
844.21,989.0000
844.46,981.0000
844.71,986.4000
844.96,1018.4000
845.21,982.2000
845.46,976.8000
845.71,998.8000
845.96,989.4000
846.21,993.8000
846.46,1010.8000
846.71,985.2000
846.96,963.6000
847.21,990.8000
847.46,990.6000
847.71,986.8000
847.96,989.6000
848.21,984.8000
848.46,991.0000
848.71,1012.2000
848.96,1002.6000
849.21,999.6000
849.46,975.4000
849.71,991.4000
849.96,985.6000
850.21,983.0000
850.46,991.6000
850.71,988.2000
850.96,968.6000
851.21,990.6000
851.46,983.4000
851.71,974.8000
851.96,976.2000
852.21,976.8000
852.46,980.4000
852.71,992.2000
852.96,987.2000
853.21,994.2000
853.46,1009.0000
853.71,1015.2000
853.96,988.4000
854.21,992.4000
854.46,1035.2000
854.70,998.8000
854.95,993.4000
855.20,989.8000
855.45,1001.4000
855.70,996.2000
855.95,980.0000
856.20,1009.2000
856.45,990.2000
856.70,989.2000
856.95,1000.2000
857.20,984.0000
857.44,1007.4000
857.69,981.2000
857.94,986.6000
858.19,1014.2000
858.44,976.2000
858.69,992.8000
858.94,1009.8000
859.19,984.6000
859.44,988.0000
859.68,998.0000
859.93,995.8000
860.18,971.8000
860.43,989.2000
860.68,1019.6000
860.93,994.0000
861.18,996.2000
861.42,994.8000
861.67,996.0000
861.92,1004.6000
862.17,1011.8000
862.42,1006.4000
862.67,994.8000
862.91,1003.6000
863.16,1002.0000
863.41,992.4000
863.66,1015.4000
863.91,1018.0000
864.16,1008.8000
864.40,989.8000
864.65,998.6000
864.90,977.8000
865.15,982.0000
865.40,996.2000
865.64,997.6000
865.89,1009.0000
866.14,988.4000
866.39,992.0000
866.64,983.2000
866.88,969.4000
867.13,998.2000
867.38,1005.8000
867.63,974.4000
867.87,982.6000
868.12,1002.0000
868.37,1011.6000
868.62,979.4000
868.86,983.0000
869.11,976.4000
869.36,1001.4000
869.61,999.4000
869.85,1007.0000
870.10,1021.2000
870.35,997.2000
870.60,992.8000
870.84,992.6000
871.09,984.0000
871.34,989.2000
871.59,988.0000
871.83,1013.4000
872.08,1000.0000
872.33,967.6000
872.57,999.2000
872.82,1005.6000
873.07,988.8000
873.32,1005.8000
873.56,1009.6000
873.81,993.8000
874.06,1003.0000
874.30,981.2000
874.55,1005.4000
874.80,989.0000
875.04,1012.2000
875.29,998.0000
875.54,1005.6000
875.78,985.6000
876.03,1001.2000
876.28,980.8000
876.52,968.6000
876.77,984.6000
877.02,1004.0000
877.26,980.8000
877.51,985.0000
877.76,993.8000
878.00,999.6000
878.25,1007.0000
878.50,1010.6000
878.74,991.2000
878.99,993.8000
879.23,976.4000
879.48,984.2000
879.73,1004.2000
879.97,991.0000
880.22,987.8000
880.47,988.0000
880.71,970.0000
880.96,1020.4000
881.20,984.8000
881.45,985.4000
881.70,993.8000
881.94,998.8000
882.19,978.4000
882.43,1001.0000
882.68,976.4000
882.92,1019.4000
883.17,992.8000
883.42,1004.6000
883.66,995.0000
883.91,986.2000
884.15,971.8000
884.40,1000.2000
884.64,989.6000
884.89,999.2000
885.14,991.8000
885.38,1007.2000
885.63,987.0000
885.87,983.6000
886.12,984.0000
886.36,1003.2000
886.61,1000.6000
886.85,999.2000
887.10,993.2000
887.34,984.6000
887.59,996.0000
887.83,971.8000
888.08,1007.4000
888.32,972.0000
888.57,1011.6000
888.81,998.0000
889.06,1012.2000
889.30,978.4000
889.55,988.6000
889.79,988.6000
890.04,995.2000
890.28,995.6000
890.53,995.4000
890.77,1025.4000
891.02,988.0000
891.26,1009.2000
891.51,983.4000
891.75,992.0000
892.00,981.2000
892.24,988.2000
892.49,992.6000
892.73,1016.2000
892.98,1003.0000
893.22,994.8000
893.47,975.0000
893.71,1003.8000
893.95,1001.2000
894.20,983.2000
894.44,986.0000
894.69,1021.8000
894.93,1038.0000
895.18,1000.2000
895.42,1006.2000
895.66,986.8000
895.91,989.4000
896.15,984.0000
896.40,1007.8000
896.64,1024.4000
896.88,983.0000
897.13,1007.4000
897.37,989.0000
897.62,997.8000
897.86,1014.0000
898.10,999.6000
898.35,995.4000
898.59,999.6000
898.84,1009.0000
899.08,995.0000
899.32,1003.0000
899.57,1014.4000
899.81,984.4000
900.05,982.4000
900.30,1003.4000
900.54,988.4000
900.78,1031.4000
901.03,1011.8000
901.27,991.4000
901.52,990.0000
901.76,996.8000
902.00,1010.0000
902.25,995.6000
902.49,982.2000
902.73,1000.0000
902.98,987.4000
903.22,999.2000
903.46,983.6000
903.70,987.8000
903.95,997.0000
904.19,1005.6000
904.43,1008.6000
904.68,995.2000
904.92,994.0000
905.16,992.4000
905.41,1005.2000
905.65,988.0000
905.89,991.8000
906.13,1027.6000
906.38,989.4000
906.62,1003.2000
906.86,977.6000
907.11,993.6000
907.35,984.4000
907.59,1013.8000
907.83,1020.8000
908.08,991.0000
908.32,971.2000
908.56,1000.8000
908.80,1002.6000
909.05,1013.8000
909.29,994.8000
909.53,989.4000
909.77,995.4000
910.02,984.4000
910.26,1021.0000
910.50,987.2000
910.74,1002.6000
910.98,998.2000
911.23,1013.2000
911.47,999.4000
911.71,999.6000
911.95,988.8000
912.20,1008.6000
912.44,978.8000
912.68,993.8000
912.92,999.2000
913.16,1001.8000
913.41,972.8000
913.65,999.2000
913.89,1002.2000
914.13,997.8000
914.37,989.2000
914.61,1019.8000
914.86,991.8000
915.10,998.6000
915.34,998.2000
915.58,984.6000
915.82,979.2000
916.06,994.8000
916.31,986.6000
916.55,993.0000
916.79,1008.2000
917.03,1013.2000
917.27,971.0000
917.51,1011.8000
917.75,989.0000
918.00,975.2000
918.24,1015.6000
918.48,1001.2000
918.72,1034.4000
918.96,1001.0000
919.20,1011.0000
919.44,1035.6000
919.68,1045.0000
919.92,998.6000
920.17,993.8000
920.41,991.2000
920.65,994.6000
920.89,1001.0000
921.13,1002.0000
921.37,1017.6000
921.61,973.8000
921.85,1002.8000
922.09,1002.4000
922.33,1000.0000
922.57,995.0000
922.81,969.8000
923.05,998.8000
923.30,981.6000
923.54,985.6000
923.78,982.8000
924.02,1011.4000
924.26,995.6000
924.50,986.0000
924.74,996.2000
924.98,987.8000
925.22,1001.0000
925.46,996.4000
925.70,996.4000
925.94,1025.0000
926.18,1002.6000
926.42,997.4000
926.66,1012.4000
926.90,985.0000
927.14,981.8000
927.38,995.0000
927.62,981.6000
927.86,1034.4000
928.10,1026.0000
928.34,976.2000
928.58,969.2000
928.82,995.2000
929.06,1005.0000
929.30,1025.2000
929.54,998.2000
929.78,984.2000
930.02,978.6000
930.26,1001.6000
930.50,981.2000
930.74,997.2000
930.98,994.8000
931.22,998.2000
931.46,987.2000
931.70,984.4000
931.94,1012.8000
932.17,991.0000
932.41,1006.2000
932.65,994.0000
932.89,984.8000
933.13,1003.6000
933.37,991.6000
933.61,969.6000
933.85,989.8000
934.09,976.6000
934.33,981.4000
934.57,962.6000
934.81,984.4000
935.05,997.4000
935.28,998.0000
935.52,977.2000
935.76,976.0000
936.00,1006.0000
936.24,1003.0000
936.48,994.0000
936.72,989.0000
936.96,1000.6000
937.19,988.4000
937.43,1012.0000
937.67,987.2000
937.91,981.4000
938.15,989.6000
938.39,984.4000
938.63,977.0000
938.86,985.4000
939.10,993.6000
939.34,980.8000
939.58,971.2000
939.82,982.6000
940.06,984.4000
940.30,967.8000
940.53,978.0000
940.77,971.0000
941.01,968.8000
941.25,967.4000
