Wavelength (nm),Intensity
394.27,1030.4000
394.56,1012.4000
394.85,1018.8000
395.14,991.8000
395.44,1000.4000
395.73,1012.6000
396.02,985.2000
396.31,998.4000
396.61,1003.2000
396.90,998.8000
397.19,1003.2000
397.48,1015.2000
397.77,989.8000
398.06,999.0000
398.36,1008.0000
398.65,1000.8000
398.94,990.6000
399.23,1000.2000
399.52,993.6000
399.82,1012.4000
400.11,990.8000
400.40,1001.8000
400.69,991.8000
400.98,993.2000
401.27,1015.4000
401.57,992.8000
401.86,1005.0000
402.15,991.6000
402.44,994.8000
402.73,997.0000
403.02,1017.2000
403.32,988.2000
403.61,995.0000
403.90,993.4000
404.19,1009.2000
404.48,1008.4000
404.77,1000.6000
405.06,1022.0000
405.36,1027.8000
405.65,999.6000
405.94,979.8000
406.23,1014.8000
406.52,1020.8000
406.81,1022.0000
407.10,1006.8000
407.40,1001.8000
407.69,1000.2000
407.98,1006.8000
408.27,999.6000
408.56,992.0000
408.85,1035.4000
409.14,988.6000
409.43,1008.6000
409.72,989.6000
410.02,1032.2000
410.31,1003.2000
410.60,1010.0000
410.89,1015.6000
411.18,1002.2000
411.47,993.0000
411.76,992.8000
412.05,1005.6000
412.34,1011.6000
412.63,999.6000
412.93,1039.4000
413.22,1022.8000
413.51,991.0000
413.80,1008.4000
414.09,978.8000
414.38,994.2000
414.67,1008.4000
414.96,981.6000
415.25,1034.4000
415.54,1013.2000
415.83,981.6000
416.12,980.4000
416.41,982.2000
416.70,1010.4000
417.00,1007.4000
417.29,1010.0000
417.58,1007.6000
417.87,992.0000
418.16,1019.8000
418.45,989.2000
418.74,990.8000
419.03,993.8000
419.32,1028.0000
419.61,1011.0000
419.90,1008.8000
420.19,997.2000
420.48,995.0000
420.77,977.4000
421.06,1001.8000
421.35,1002.2000
421.64,1000.0000
421.93,985.0000
422.22,998.2000
422.51,1024.6000
422.80,1000.4000
423.09,1001.4000
423.38,1036.8000
423.67,1000.8000
423.96,995.4000
424.25,988.4000
424.54,990.4000
424.83,967.8000
425.12,1001.0000
425.41,997.4000
425.70,1049.4000
425.99,1005.2000
426.28,1002.8000
426.57,1005.8000
426.86,985.4000
427.15,997.6000
427.44,1027.6000
427.73,1021.4000
428.02,1006.4000
428.31,1021.0000
428.60,1033.0000
428.89,997.2000
429.18,1006.8000
429.47,1011.8000
429.76,992.8000
430.05,991.8000
430.34,1024.2000
430.63,990.6000
430.92,1018.2000
431.21,1008.6000
431.50,990.4000
431.79,989.6000
432.08,987.4000
432.37,996.0000
432.66,996.0000
432.94,992.2000
433.23,998.0000
433.52,1019.4000
433.81,1006.4000
434.10,1061.4000
434.39,1002.6000
434.68,1027.6000
434.97,983.0000
435.26,991.0000
435.55,1002.8000
435.84,994.6000
436.13,990.2000
436.42,1017.6000
436.71,1005.4000
436.99,997.6000
437.28,995.4000
437.57,1008.2000
437.86,992.0000
438.15,1008.0000
438.44,991.4000
438.73,1008.6000
439.02,1015.0000
439.31,1015.8000
439.60,989.8000
439.88,1015.2000
440.17,997.2000
440.46,1012.4000
440.75,987.4000
441.04,985.8000
441.33,1017.0000
441.62,1012.2000
441.91,982.2000
442.20,991.8000
442.48,1003.4000
442.77,995.4000
443.06,1004.6000
443.35,972.8000
443.64,994.4000
443.93,984.6000
444.22,993.4000
444.50,1013.6000
444.79,998.2000
445.08,998.8000
445.37,1009.6000
445.66,986.6000
445.95,988.2000
446.24,991.6000
446.52,993.2000
446.81,1026.4000
447.10,987.2000
447.39,1005.6000
447.68,996.0000
447.97,973.0000
448.25,1014.6000
448.54,1027.0000
448.83,999.4000
449.12,1024.6000
449.41,999.8000
449.69,1008.4000
449.98,996.8000
450.27,999.4000
450.56,990.0000
450.85,1008.6000
451.14,982.6000
451.42,999.6000
451.71,1000.6000
452.00,995.8000
452.29,1004.0000
452.58,999.8000
452.86,1000.0000
453.15,994.8000
453.44,992.2000
453.73,1009.4000
454.01,985.8000
454.30,1038.0000
454.59,985.2000
454.88,993.2000
455.17,977.8000
455.45,991.8000
455.74,1033.4000
456.03,999.2000
456.32,990.4000
456.60,985.0000
456.89,1008.2000
457.18,983.6000
457.47,980.6000
457.76,1002.6000
458.04,986.6000
458.33,1000.2000
458.62,996.2000
458.91,969.8000
459.19,984.0000
459.48,983.8000
459.77,981.4000
460.06,986.4000
460.34,1002.0000
460.63,994.4000
460.92,982.0000
461.20,987.6000
461.49,998.4000
461.78,985.6000
462.07,973.2000
462.35,1005.6000
462.64,991.2000
462.93,1001.8000
463.22,1017.2000
463.50,1011.8000
463.79,991.4000
464.08,1017.0000
464.36,996.8000
464.65,993.0000
464.94,993.0000
465.22,991.4000
465.51,1002.8000
465.80,1027.8000
466.09,984.6000
466.37,1004.2000
466.66,1006.8000
466.95,994.0000
467.23,989.0000
467.52,999.8000
467.81,1028.2000
468.09,983.4000
468.38,998.2000
468.67,1029.0000
468.95,994.6000
469.24,988.4000
469.53,1012.6000
469.81,1003.2000
470.10,993.4000
470.39,1016.4000
470.67,997.2000
470.96,1008.2000
471.25,995.8000
471.53,1022.8000
471.82,1000.8000
472.11,993.0000
472.39,983.8000
472.68,995.2000
472.97,989.2000
473.25,986.8000
473.54,988.2000
473.82,986.0000
474.11,998.8000
474.40,998.6000
474.68,1024.2000
474.97,1013.8000
475.26,1000.6000
475.54,980.8000
475.83,998.2000
476.11,995.6000
476.40,1004.4000
476.69,1007.6000
476.97,1004.6000
477.26,1002.6000
477.55,1019.2000
477.83,974.2000
478.12,996.8000
478.40,992.6000
478.69,994.4000
478.98,993.0000
479.26,984.8000
479.55,1002.0000
479.83,996.4000
480.12,993.0000
480.40,1003.8000
480.69,983.0000
480.98,986.8000
481.26,1016.0000
481.55,988.6000
481.83,999.6000
482.12,990.2000
482.41,994.4000
482.69,980.2000
482.98,1006.4000
483.26,1020.4000
483.55,998.8000
483.83,994.6000
484.12,995.0000
484.40,994.4000
484.69,968.4000
484.98,1002.0000
485.26,982.4000
485.55,993.6000
485.83,968.6000
486.12,1000.4000
486.40,1000.8000
486.69,1000.0000
486.97,995.6000
487.26,1005.6000
487.54,988.0000
487.83,995.0000
488.11,992.6000
488.40,1032.8000
488.68,1017.6000
488.97,998.8000
489.26,1000.8000
489.54,1012.2000
489.83,992.0000
490.11,988.0000
490.40,1002.8000
490.68,991.0000
490.97,979.6000
491.25,1001.6000
491.54,987.8000
491.82,1015.0000
492.11,992.8000
492.39,1009.0000
492.68,992.6000
492.96,1018.4000
493.24,987.4000
493.53,985.4000
493.81,1030.6000
494.10,992.8000
494.38,981.6000
494.67,989.8000
494.95,1028.0000
495.24,978.8000
495.52,1004.6000
495.81,1006.0000
496.09,996.2000
496.38,978.6000
496.66,1012.0000
496.95,1010.4000
497.23,1001.0000
497.51,974.6000
497.80,989.4000
498.08,988.0000
498.37,981.0000
498.65,1000.6000
498.94,1019.8000
499.22,997.4000
499.51,996.6000
499.79,989.4000
500.07,983.2000
500.36,1001.6000
500.64,1007.6000
500.93,991.8000
501.21,1009.8000
501.50,989.8000
501.78,998.2000
502.06,977.8000
502.35,983.6000
502.63,980.2000
502.92,1003.4000
503.20,1014.8000
503.48,1032.2000
503.77,994.8000
504.05,990.0000
504.34,974.8000
504.62,1001.8000
504.90,1008.2000
505.19,1028.4000
505.47,989.8000
505.76,995.4000
506.04,993.0000
506.32,1012.0000
506.61,981.6000
506.89,1004.8000
507.17,1001.2000
507.46,1003.6000
507.74,1012.4000
508.03,986.2000
508.31,997.8000
508.59,970.4000
508.88,981.8000
509.16,1031.8000
509.44,1006.2000
509.73,1000.6000
510.01,1000.8000
510.29,998.2000
510.58,977.2000
510.86,1000.4000
511.14,1013.2000
511.43,995.0000
511.71,989.8000
511.99,1001.8000
512.28,997.2000
512.56,977.6000
512.84,994.0000
513.13,979.6000
513.41,989.8000
513.69,999.0000
513.98,965.0000
514.26,996.4000
514.54,997.6000
514.83,996.6000
515.11,1003.0000
515.39,1007.0000
515.68,1001.6000
515.96,997.0000
516.24,984.4000
516.53,991.0000
516.81,1022.0000
517.09,976.6000
517.37,977.6000
517.66,988.4000
517.94,984.8000
518.22,994.0000
518.51,988.4000
518.79,1001.6000
519.07,990.8000
519.35,987.8000
519.64,1000.4000
519.92,1009.2000
520.20,1001.2000
520.48,1005.2000
520.77,996.4000
521.05,975.4000
521.33,969.6000
521.62,986.8000
521.90,1000.4000
522.18,982.6000
522.46,989.2000
522.75,985.6000
523.03,998.4000
523.31,982.4000
523.59,1026.4000
523.88,1006.2000
524.16,990.4000
524.44,1006.6000
524.72,1012.2000
525.00,1011.0000
525.29,1007.4000
525.57,982.4000
525.85,997.4000
526.13,982.6000
526.42,976.0000
526.70,997.4000
526.98,987.4000
527.26,983.2000
527.54,997.4000
527.83,1000.2000
528.11,985.2000
528.39,999.2000
528.67,988.6000
528.95,994.6000
529.24,983.6000
529.52,1009.0000
529.80,995.8000
530.08,1014.4000
530.36,986.2000
530.65,1009.2000
530.93,993.8000
531.21,995.6000
531.49,993.8000
531.77,992.4000
532.05,987.4000
532.34,994.2000
532.62,991.4000
532.90,1009.0000
533.18,993.8000
533.46,1001.0000
533.74,991.0000
534.03,993.8000
534.31,998.2000
534.59,999.2000
534.87,1008.6000
535.15,1006.0000
535.43,1018.6000
535.71,996.6000
536.00,1003.0000
536.28,993.8000
536.56,999.4000
536.84,1007.6000
537.12,986.4000
537.40,998.4000
537.68,1012.0000
537.97,1001.6000
538.25,988.4000
538.53,1007.4000
538.81,1009.2000
539.09,982.2000
539.37,987.4000
539.65,995.0000
539.93,994.2000
540.21,992.6000
540.50,968.6000
540.78,1003.6000
541.06,998.6000
541.34,999.2000
541.62,1003.2000
541.90,1015.0000
542.18,992.8000
542.46,1002.6000
542.74,1010.6000
543.02,984.0000
543.30,1011.6000
543.58,1005.6000
543.87,997.4000
544.15,986.6000
544.43,1008.6000
544.71,999.6000
544.99,1008.6000
545.27,998.4000
545.55,980.6000
545.83,986.0000
546.11,994.2000
546.39,999.4000
546.67,1008.6000
546.95,985.6000
547.23,982.2000
547.51,986.4000
547.79,1010.2000
548.07,1002.2000
548.35,988.6000
548.63,981.2000
548.91,1007.8000
549.20,983.4000
549.48,1035.6000
549.76,992.0000
550.04,989.6000
550.32,993.2000
550.60,988.4000
550.88,985.2000
551.16,1010.2000
551.44,1008.8000
551.72,980.8000
552.00,982.4000
552.28,1000.4000
552.56,1013.4000
552.84,1013.6000
553.12,1002.0000
553.40,983.4000
553.68,1000.8000
553.96,991.2000
554.24,983.0000
554.52,989.2000
554.80,993.6000
555.08,1003.8000
555.36,976.6000
555.64,999.4000
555.92,995.2000
556.19,992.4000
556.47,993.4000
556.75,997.0000
557.03,1000.2000
557.31,1004.0000
557.59,1013.0000
557.87,983.4000
558.15,1000.0000
558.43,981.8000
558.71,998.8000
558.99,985.0000
559.27,993.0000
559.55,985.0000
559.83,985.8000
560.11,996.6000
560.39,987.0000
560.67,1003.4000
560.95,1003.4000
561.23,989.4000
561.50,991.6000
561.78,982.8000
562.06,985.6000
562.34,994.4000
562.62,991.8000
562.90,1006.8000
563.18,1005.6000
563.46,983.6000
563.74,993.4000
564.02,1025.4000
564.30,993.8000
564.57,984.2000
564.85,975.2000
565.13,1016.0000
565.41,988.2000
565.69,993.6000
565.97,1006.6000
566.25,985.8000
566.53,993.4000
566.81,1019.0000
567.08,998.6000
567.36,987.8000
567.64,971.2000
567.92,1000.4000
568.20,976.8000
568.48,981.8000
568.76,1015.6000
569.04,999.4000
569.31,1007.8000
569.59,1000.4000
569.87,996.4000
570.15,977.2000
570.43,995.2000
570.71,999.8000
570.99,1002.0000
571.26,996.4000
571.54,1008.6000
571.82,982.6000
572.10,994.0000
572.38,993.4000
572.66,1009.2000
572.93,988.2000
573.21,989.4000
573.49,989.8000
573.77,1014.8000
574.05,969.2000
574.32,987.6000
574.60,1003.2000
574.88,1003.8000
575.16,1028.4000
575.44,999.8000
575.71,993.8000
575.99,1049.6000
576.27,1013.6000
576.55,985.8000
576.83,1014.4000
577.10,1001.8000
577.38,1014.2000
577.66,987.8000
577.94,1004.4000
578.22,971.8000
578.49,998.2000
578.77,986.8000
579.05,1013.6000
579.33,992.6000
579.60,994.8000
579.88,997.2000
580.16,997.6000
580.44,998.4000
580.72,979.0000
580.99,988.4000
581.27,986.2000
581.55,1000.0000
581.83,993.0000
582.10,1001.0000
582.38,996.4000
582.66,1004.6000
582.94,990.6000
583.21,1002.8000
583.49,1011.4000
583.77,988.4000
584.04,1003.2000
584.32,1007.4000
584.60,1003.4000
584.88,975.4000
585.15,1006.4000
585.43,976.2000
585.71,988.2000
585.98,988.6000
586.26,986.8000
586.54,1007.8000
586.82,998.8000
587.09,983.8000
587.37,1000.0000
587.65,979.6000
587.92,994.0000
588.20,1001.4000
588.48,1028.6000
588.75,991.4000
589.03,985.8000
589.31,988.6000
589.59,986.2000
589.86,1027.6000
590.14,989.8000
590.42,1008.2000
590.69,1001.6000
590.97,988.0000
591.25,977.6000
591.52,996.6000
591.80,1019.0000
592.08,998.4000
592.35,994.0000
592.63,996.6000
592.91,1009.2000
593.18,1001.6000
593.46,985.2000
593.73,991.0000
594.01,1000.8000
594.29,1012.0000
594.56,983.2000
594.84,1004.0000
595.12,1015.8000
595.39,988.2000
595.67,989.0000
595.95,988.8000
596.22,988.6000
596.50,983.8000
596.77,995.4000
597.05,1018.4000
597.33,1012.0000
597.60,986.4000
597.88,995.6000
598.15,1005.0000
598.43,984.4000
598.71,985.8000
598.98,1054.6000
599.26,1023.0000
599.53,975.2000
599.81,1010.0000
600.09,993.0000
600.36,981.8000
600.64,999.6000
600.91,993.0000
601.19,982.8000
601.47,995.6000
601.74,980.0000
602.02,988.0000
602.29,999.4000
602.57,999.8000
602.84,987.6000
603.12,987.2000
603.40,997.2000
603.67,1002.0000
603.95,994.2000
604.22,1029.6000
604.50,994.6000
604.77,989.2000
605.05,987.4000
605.32,996.8000
605.60,1018.0000
605.87,990.0000
606.15,995.0000
606.42,988.4000
606.70,994.6000
606.98,996.6000
607.25,998.0000
607.53,1004.6000
607.80,999.6000
608.08,979.8000
608.35,994.4000
608.63,996.0000
608.90,1007.0000
609.18,986.8000
609.45,979.2000
609.73,1006.2000
610.00,1027.6000
610.28,1004.2000
610.55,987.6000
610.83,994.0000
611.10,1003.2000
611.38,997.6000
611.65,1002.2000
611.93,983.6000
612.20,997.6000
612.48,970.2000
612.75,998.8000
613.03,977.4000
613.30,1000.6000
613.57,993.0000
613.85,995.6000
614.12,1013.6000
614.40,982.4000
614.67,989.0000
614.95,996.6000
615.22,995.4000
615.50,981.4000
615.77,1016.6000
616.05,998.6000
616.32,998.0000
616.59,987.6000
616.87,992.6000
617.14,1008.4000
617.42,994.2000
617.69,1002.0000
617.97,989.8000
618.24,989.4000
618.51,968.6000
618.79,989.8000
619.06,976.4000
619.34,1003.8000
619.61,989.2000
619.88,1026.8000
620.16,989.6000
620.43,1011.2000
620.71,978.4000
620.98,984.4000
621.26,1008.4000
621.53,1002.2000
621.80,1000.6000
622.08,999.0000
622.35,988.4000
622.62,1003.2000
622.90,999.0000
623.17,985.4000
623.45,1009.6000
623.72,1008.8000
623.99,991.6000
624.27,997.8000
624.54,1017.6000
624.81,1022.6000
625.09,1000.8000
625.36,997.0000
625.64,1012.4000
625.91,997.0000
626.18,971.6000
626.46,980.6000
626.73,1030.6000
627.00,1012.2000
627.28,991.0000
627.55,985.2000
627.82,993.2000
628.10,1006.4000
628.37,974.4000
628.64,990.0000
628.92,984.2000
629.19,982.0000
629.46,999.8000
629.74,976.0000
630.01,1005.6000
630.28,1000.0000
630.56,996.2000
630.83,974.4000
631.10,993.6000
631.37,994.0000
631.65,988.8000
631.92,994.4000
632.19,992.0000
632.47,1009.2000
632.74,995.0000
633.01,1010.0000
633.28,983.0000
633.56,997.2000
633.83,967.6000
634.10,984.8000
634.38,991.8000
634.65,991.4000
634.92,986.4000
635.19,1022.6000
635.47,995.6000
635.74,979.6000
636.01,970.6000
636.28,972.8000
636.56,991.6000
636.83,985.4000
637.10,1010.6000
637.37,1003.6000
637.65,999.8000
637.92,987.0000
638.19,971.8000
638.46,1015.4000
638.74,982.4000
639.01,1009.4000
639.28,967.2000
639.55,1005.2000
639.83,976.2000
640.10,994.4000
640.37,992.4000
640.64,980.8000
640.91,1000.2000
641.19,995.0000
641.46,996.8000
641.73,1019.0000
642.00,990.2000
642.28,1011.8000
642.55,987.4000
642.82,991.4000
643.09,995.6000
643.36,993.8000
643.63,994.2000
643.91,990.2000
644.18,998.4000
644.45,992.2000
644.72,1015.2000
644.99,991.8000
645.27,972.8000
645.54,995.0000
645.81,1038.2000
646.08,1003.0000
646.35,969.4000
646.62,987.6000
646.90,990.0000
647.17,1014.8000
647.44,989.8000
647.71,1010.2000
647.98,975.0000
648.25,994.0000
648.52,979.8000
648.80,990.6000
649.07,986.4000
649.34,993.4000
649.61,985.8000
649.88,1021.2000
650.15,1006.8000
650.42,992.6000
650.69,1003.2000
650.97,1004.8000
651.24,1007.2000
651.51,998.0000
651.78,1002.2000
652.05,974.8000
652.32,989.8000
652.59,1022.8000
652.86,987.6000
653.13,996.0000
653.41,998.4000
653.68,1013.6000
653.95,1006.0000
654.22,996.0000
654.49,993.0000
654.76,989.0000
655.03,1021.0000
655.30,983.0000
655.57,989.4000
655.84,997.0000
656.11,1007.2000
656.38,996.6000
656.66,987.8000
656.93,989.8000
657.20,995.6000
657.47,1015.4000
657.74,995.6000
658.01,1012.6000
658.28,980.4000
658.55,995.6000
658.82,995.8000
659.09,1016.0000
659.36,1000.2000
659.63,995.8000
659.90,997.8000
660.17,1008.2000
660.44,991.6000
660.71,980.8000
660.98,1009.6000
661.25,1007.0000
661.52,996.6000
661.79,997.4000
662.06,990.0000
662.33,987.4000
662.60,971.8000
662.87,1006.8000
663.14,984.4000
663.41,993.8000
663.68,983.2000
663.95,980.0000
664.22,1000.0000
664.49,997.0000
664.76,977.0000
665.03,978.2000
665.30,985.6000
665.57,990.6000
665.84,988.0000
666.11,985.4000
666.38,987.6000
666.65,997.6000
666.92,1030.4000
667.19,994.8000
667.46,998.0000
667.73,1006.8000
668.00,990.4000
668.27,987.4000
668.54,1001.4000
668.81,981.4000
669.08,1001.6000
669.35,998.2000
669.62,1021.0000
669.89,986.6000
670.16,1010.8000
670.42,992.4000
670.69,1002.0000
670.96,1005.6000
671.23,989.6000
671.50,983.0000
671.77,982.4000
672.04,993.2000
672.31,981.2000
672.58,969.8000
672.85,988.4000
673.12,989.8000
673.39,994.2000
673.65,978.2000
673.92,1008.6000
674.19,997.6000
674.46,992.4000
674.73,1000.4000
675.00,994.0000
675.27,1000.2000
675.54,996.6000
675.81,988.8000
676.07,998.8000
676.34,1021.2000
676.61,1012.0000
676.88,978.6000
677.15,989.4000
677.42,996.0000
677.69,989.8000
677.96,1000.2000
678.22,994.8000
678.49,982.8000
678.76,994.2000
679.03,986.0000
679.30,977.4000
679.57,982.0000
679.83,1004.6000
680.10,999.6000
680.37,996.0000
680.64,1008.8000
680.91,977.4000
681.18,1007.2000
681.44,981.6000
681.71,979.8000
681.98,1007.6000
682.25,1008.0000
682.52,996.2000
682.79,1000.8000
683.05,1016.4000
683.32,991.0000
683.59,1004.2000
683.86,996.6000
684.13,1006.2000
684.39,990.0000
684.66,999.0000
684.93,1003.4000
685.20,988.0000
685.47,986.4000
685.73,1005.6000
686.00,980.4000
686.27,998.6000
686.54,990.4000
686.80,1020.8000
687.07,1005.8000
687.34,967.4000
687.61,996.2000
687.88,980.6000
688.14,997.4000
688.41,1009.8000
688.68,977.0000
688.95,993.4000
689.21,984.2000
689.48,1018.8000
689.75,994.4000
690.02,988.6000
690.28,984.4000
690.55,1004.6000
690.82,968.6000
691.08,996.2000
691.35,991.6000
691.62,1004.0000
691.89,1005.8000
692.15,1007.6000
692.42,999.4000
692.69,972.2000
692.95,987.0000
693.22,1014.0000
693.49,990.4000
693.76,993.8000
694.02,986.6000
694.29,998.2000
694.56,982.2000
694.82,1016.6000
695.09,980.2000
695.36,986.0000
695.62,972.0000
695.89,1019.0000
696.16,981.8000
696.43,1007.2000
696.69,1009.8000
696.96,1018.0000
697.23,989.2000
697.49,1002.8000
697.76,1014.2000
698.03,978.2000
698.29,978.8000
698.56,998.6000
698.82,995.6000
699.09,1012.8000
699.36,1000.0000
699.62,997.8000
699.89,1000.4000
700.16,974.8000
700.42,1010.2000
700.69,999.8000
700.96,1000.6000
701.22,1012.0000
701.49,998.0000
701.75,1026.2000
702.02,990.4000
702.29,999.0000
702.55,986.6000
702.82,1004.8000
703.09,1000.2000
703.35,1008.0000
703.62,1013.6000
703.88,1014.0000
704.15,980.6000
704.42,994.6000
704.68,977.6000
704.95,1019.4000
705.21,987.6000
705.48,1004.8000
705.75,985.8000
706.01,994.2000
706.28,989.8000
706.54,991.2000
706.81,999.2000
707.07,1001.6000
707.34,980.8000
707.61,1001.4000
707.87,993.4000
708.14,1003.6000
708.40,999.0000
708.67,1003.0000
708.93,1000.6000
709.20,982.0000
709.46,997.8000
709.73,998.4000
709.99,996.8000
710.26,988.4000
710.53,979.4000
710.79,964.6000
711.06,1003.6000
711.32,1073.8000
711.59,1021.4000
711.85,1016.8000
712.12,996.0000
712.38,976.4000
712.65,993.6000
712.91,996.4000
713.18,1010.2000
713.44,1005.6000
713.71,979.2000
713.97,1006.6000
714.24,987.8000
714.50,989.4000
714.77,1002.0000
715.03,994.8000
715.30,1009.4000
715.56,993.6000
715.83,977.0000
716.09,1004.0000
716.36,1029.2000
716.62,1001.6000
716.89,971.0000
717.15,1006.6000
717.42,987.4000
717.68,976.6000
717.94,978.8000
718.21,996.0000
718.47,1012.2000
718.74,987.8000
719.00,1008.4000
719.27,999.8000
719.53,987.4000
719.80,997.4000
720.06,999.2000
720.32,1021.2000
720.59,1006.8000
720.85,998.8000
721.12,977.0000
721.38,1012.2000
721.65,990.4000
721.91,990.0000
722.17,973.8000
722.44,1002.0000
722.70,992.4000
722.97,994.0000
723.23,987.6000
723.49,993.0000
723.76,978.4000
724.02,1012.8000
724.29,1006.6000
724.55,988.4000
724.81,1015.0000
725.08,998.2000
725.34,1008.2000
725.61,992.0000
725.87,999.2000
726.13,991.2000
726.40,1010.8000
726.66,993.0000
726.92,997.6000
727.19,992.8000
727.45,988.2000
727.71,1006.4000
727.98,997.0000
728.24,1013.4000
728.51,992.2000
728.77,986.4000
729.03,1000.2000
729.30,1004.8000
729.56,987.0000
729.82,1019.4000
730.09,991.8000
730.35,986.6000
730.61,1006.4000
730.88,989.8000
731.14,998.4000
731.40,994.4000
731.67,989.6000
731.93,992.8000
732.19,1010.2000
732.45,1015.6000
732.72,982.2000
732.98,995.0000
733.24,982.6000
733.51,977.8000
733.77,984.4000
734.03,994.2000
734.30,996.4000
734.56,994.8000
734.82,967.8000
735.08,1001.2000
735.35,997.2000
735.61,1017.4000
735.87,1004.8000
736.14,1014.6000
736.40,1004.4000
736.66,1001.8000
736.92,999.6000
737.19,1002.2000
737.45,995.6000
737.71,984.6000
737.97,988.8000
738.24,1001.4000
738.50,996.8000
738.76,1020.6000
739.02,982.4000
739.29,1010.6000
739.55,1016.8000
739.81,985.8000
740.07,987.2000
740.33,1005.4000
740.60,987.0000
740.86,1010.2000
741.12,1009.4000
741.38,995.0000
741.65,1008.6000
741.91,1000.4000
742.17,1014.0000
742.43,975.6000
742.69,986.4000
742.96,1021.2000
743.22,997.6000
743.48,1002.0000
743.74,1000.0000
744.00,998.0000
744.26,994.4000
744.53,996.8000
744.79,984.0000
745.05,995.6000
745.31,981.2000
745.57,1008.0000
745.84,991.2000
746.10,993.6000
746.36,986.2000
746.62,994.0000
746.88,990.2000
747.14,1001.0000
747.40,979.4000
747.67,990.4000
747.93,987.2000
748.19,976.0000
748.45,1006.2000
748.71,992.2000
748.97,1001.8000
749.23,1014.6000
749.50,1019.0000
749.76,988.2000
750.02,985.8000
750.28,1014.2000
750.54,987.4000
750.80,991.4000
751.06,974.6000
751.32,1000.6000
751.59,987.8000
751.85,996.6000
752.11,1017.6000
752.37,1024.6000
752.63,998.8000
752.89,1015.4000
753.15,1023.6000
753.41,984.4000
753.67,996.4000
753.93,996.0000
754.19,985.2000
754.46,1024.8000
754.72,976.0000
754.98,989.4000
755.24,1012.2000
755.50,976.2000
755.76,1002.6000
756.02,1004.6000
756.28,979.8000
756.54,994.2000
756.80,1013.0000
757.06,1016.6000
757.32,981.0000
757.58,993.4000
757.84,1013.6000
758.10,978.6000
758.36,978.8000
758.62,988.8000
758.88,991.2000
759.14,1005.4000
759.40,1003.2000
759.66,973.4000
759.92,1003.8000
760.18,993.0000
760.44,999.0000
760.70,996.0000
760.96,1002.4000
761.22,995.6000
761.48,985.0000
761.74,1001.0000
762.00,995.8000
762.26,999.0000
762.52,996.2000
762.78,995.0000
763.04,984.2000
763.30,1018.2000
763.56,979.6000
763.82,985.8000
764.08,990.8000
764.34,997.8000
764.60,1006.0000
764.86,995.6000
765.12,974.2000
765.38,1000.8000
765.64,1012.2000
765.90,1029.2000
766.16,986.2000
766.42,990.8000
766.68,999.6000
766.94,983.6000
767.20,992.0000
767.46,985.6000
767.72,980.4000
767.98,1007.4000
768.23,993.0000
768.49,1006.6000
768.75,1004.6000
769.01,1020.6000
769.27,986.4000
769.53,1005.4000
769.79,991.2000
770.05,995.6000
770.31,994.4000
770.57,1017.0000
770.83,981.4000
771.08,995.8000
771.34,983.6000
771.60,1008.0000
771.86,985.2000
772.12,987.6000
772.38,1000.6000
772.64,1002.0000
772.90,980.6000
773.16,995.4000
773.41,993.8000
773.67,978.0000
773.93,994.0000
774.19,988.4000
774.45,1001.8000
774.71,1001.4000
774.97,993.6000
775.22,989.8000
775.48,999.6000
775.74,972.6000
776.00,1008.4000
776.26,981.2000
776.52,970.8000
776.77,983.6000
777.03,1004.0000
777.29,976.4000
777.55,983.2000
777.81,983.8000
778.07,992.4000
778.32,987.0000
778.58,982.4000
778.84,979.0000
779.10,996.8000
779.36,1005.6000
779.61,996.8000
779.87,996.4000
780.13,974.4000
780.39,1009.2000
780.65,981.8000
780.90,992.6000
781.16,1003.2000
781.42,979.2000
781.68,992.4000
781.94,989.8000
782.19,977.6000
782.45,1001.4000
782.71,990.6000
782.97,1008.2000
783.22,1005.8000
783.48,980.8000
783.74,982.2000
784.00,1000.8000
784.25,992.0000
784.51,986.0000
784.77,1017.6000
785.03,998.6000
785.28,992.4000
785.54,980.6000
785.80,1011.0000
786.06,982.2000
786.31,992.4000
786.57,994.4000
786.83,991.8000
787.08,1016.0000
787.34,988.8000
787.60,1001.6000
787.86,990.2000
788.11,997.2000
788.37,988.6000
788.63,996.8000
788.88,1027.4000
789.14,1002.0000
789.40,999.4000
789.65,1012.4000
789.91,1015.8000
790.17,988.4000
790.42,978.6000
790.68,995.6000
790.94,991.8000
791.20,1029.6000
791.45,1029.4000
791.71,1000.0000
791.97,983.6000
792.22,1014.0000
792.48,994.2000
792.73,976.6000
792.99,1005.0000
793.25,970.4000
793.50,993.6000
793.76,1000.6000
794.02,977.2000
794.27,981.6000
794.53,1011.2000
794.79,998.8000
795.04,1007.2000
795.30,987.2000
795.55,997.2000
795.81,977.2000
796.07,1003.6000
796.32,998.0000
796.58,982.8000
796.84,985.2000
797.09,988.8000
797.35,1000.4000
797.60,991.0000
797.86,1005.2000
798.12,1007.2000
798.37,1000.8000
798.63,995.2000
798.88,984.8000
799.14,994.4000
799.39,984.6000
799.65,1015.4000
799.91,967.0000
800.16,994.8000
800.42,994.6000
800.67,1007.4000
800.93,1001.0000
801.18,970.2000
801.44,1001.0000
801.70,999.8000
801.95,989.4000
802.21,991.4000
802.46,987.4000
802.72,993.4000
802.97,1017.8000
803.23,1005.2000
803.48,995.4000
803.74,977.8000
803.99,976.0000
804.25,983.4000
804.50,1007.8000
804.76,989.8000
805.02,984.8000
805.27,1006.8000
805.53,1018.4000
805.78,980.4000
806.04,1006.6000
806.29,981.8000
806.55,1015.6000
806.80,997.0000
807.06,1038.6000
807.31,975.8000
807.56,998.2000
807.82,997.0000
808.07,1018.2000
808.33,989.0000
808.58,1001.0000
808.84,1013.6000
809.09,988.6000
809.35,1020.6000
809.60,983.4000
809.86,999.0000
810.11,1001.8000
810.37,992.4000
810.62,971.6000
810.88,989.2000
811.13,1005.6000
811.38,981.8000
811.64,994.0000
811.89,1003.2000
812.15,978.2000
812.40,995.0000
812.66,1010.6000
812.91,997.6000
813.16,984.6000
813.42,997.0000
813.67,997.8000
813.93,979.4000
814.18,999.8000
814.44,1021.6000
814.69,993.4000
814.94,992.6000
815.20,987.6000
815.45,977.8000
815.71,987.8000
815.96,973.6000
816.21,991.6000
816.47,1012.4000
816.72,983.0000
816.97,990.4000
817.23,991.0000
817.48,976.2000
817.74,987.8000
817.99,1005.6000
818.24,1016.0000
818.50,993.2000
818.75,1014.2000
819.00,995.8000
819.26,1002.4000
819.51,1042.6000
819.76,977.0000
820.02,987.6000
820.27,980.6000
820.52,963.8000
820.78,977.4000
821.03,1007.4000
821.28,999.4000
821.54,1007.4000
821.79,992.0000
822.04,989.2000
822.30,974.8000
822.55,996.2000
822.80,1006.4000
823.06,991.4000
823.31,983.2000
823.56,985.6000
823.82,992.0000
824.07,992.8000
824.32,984.0000
824.57,984.8000
824.83,1001.8000
825.08,1003.4000
825.33,996.2000
825.59,984.2000
825.84,982.2000
826.09,993.8000
826.34,989.2000
826.60,995.4000
826.85,997.4000
827.10,979.4000
827.35,1010.0000
827.61,974.4000
827.86,1000.8000
828.11,982.8000
828.36,970.6000
828.62,998.4000
828.87,1006.8000
829.12,988.6000
829.37,1010.8000
829.63,979.4000
829.88,1000.2000
830.13,996.2000
830.38,998.4000
830.63,970.8000
830.89,988.0000
831.14,982.6000
831.39,993.8000
831.64,995.4000
831.89,1018.8000
832.15,980.6000
832.40,992.2000
832.65,1004.8000
832.90,988.4000
833.15,992.4000
833.41,997.6000
833.66,1039.8000
833.91,1006.4000
834.16,998.2000
834.41,1003.4000
834.67,975.8000
834.92,1001.4000
835.17,985.2000
835.42,980.2000
835.67,993.2000
835.92,994.4000
836.17,982.0000
836.43,1006.4000
836.68,1001.2000
836.93,972.8000
837.18,984.0000
837.43,987.2000
837.68,991.8000
837.93,972.6000
838.19,977.0000
838.44,986.0000
838.69,1008.8000
838.94,979.0000
839.19,974.8000
839.44,983.8000
839.69,995.6000
839.94,987.4000
840.20,997.6000
840.45,1019.8000
840.70,1009.2000
840.95,985.0000
841.20,983.2000
841.45,976.2000
841.70,1001.2000
841.95,985.8000
842.20,999.4000
842.45,1027.4000
842.70,1011.0000
842.95,979.4000
843.21,998.0000
843.46,990.4000
843.71,996.8000
843.96,1025.2000
844.21,985.2000
844.46,975.8000
844.71,986.2000
844.96,1031.2000
845.21,978.0000
845.46,983.2000
845.71,990.8000
845.96,976.4000
846.21,996.4000
846.46,996.8000
846.71,983.6000
846.96,958.4000
847.21,998.4000
847.46,986.8000
847.71,985.4000
847.96,985.2000
848.21,979.4000
848.46,990.6000
848.71,1001.2000
848.96,1012.4000
849.21,1007.2000
849.46,974.2000
849.71,1003.8000
849.96,976.4000
850.21,971.2000
850.46,992.2000
850.71,984.4000
850.96,961.6000
851.21,991.8000
851.46,984.2000
851.71,969.8000
851.96,972.2000
852.21,974.2000
852.46,976.6000
852.71,995.4000
852.96,993.8000
853.21,988.4000
853.46,989.0000
853.71,1009.6000
853.96,982.6000
854.21,985.0000
854.46,1027.6000
854.70,988.8000
854.95,998.4000
855.20,986.0000
855.45,1005.0000
855.70,996.4000
855.95,987.0000
856.20,1000.2000
856.45,985.8000
856.70,995.8000
856.95,985.6000
857.20,987.2000
857.44,1001.8000
857.69,979.8000
857.94,985.4000
858.19,1009.4000
858.44,984.6000
858.69,990.0000
858.94,993.8000
859.19,994.0000
859.44,990.4000
859.68,1004.6000
859.93,993.8000
860.18,984.4000
860.43,1000.0000
860.68,1019.0000
860.93,991.2000
861.18,997.0000
861.42,996.4000
861.67,996.6000
861.92,1001.2000
862.17,1006.6000
862.42,1001.2000
862.67,1001.2000
862.91,999.0000
863.16,1002.4000
863.41,1001.6000
863.66,1015.8000
863.91,1012.2000
864.16,995.6000
864.40,989.4000
864.65,996.4000
864.90,972.2000
865.15,978.6000
865.40,984.4000
865.64,997.4000
865.89,1004.8000
866.14,1000.6000
866.39,978.2000
866.64,989.6000
866.88,975.6000
867.13,1004.4000
867.38,1014.8000
867.63,972.8000
867.87,981.6000
868.12,1002.2000
868.37,1006.6000
868.62,991.0000
868.86,987.4000
869.11,985.8000
869.36,1004.8000
869.61,1008.2000
869.85,1009.8000
870.10,1027.6000
870.35,995.6000
870.60,991.0000
870.84,991.0000
871.09,999.0000
871.34,995.6000
871.59,991.6000
871.83,1011.4000
872.08,998.6000
872.33,974.4000
872.57,990.8000
872.82,1008.6000
873.07,985.4000
873.32,1006.6000
873.56,1000.0000
873.81,992.8000
874.06,1002.4000
874.30,981.8000
874.55,999.0000
874.80,980.8000
875.04,1001.4000
875.29,993.0000
875.54,1002.2000
875.78,988.4000
876.03,1006.6000
876.28,990.0000
876.52,972.0000
876.77,994.0000
877.02,996.8000
877.26,993.8000
877.51,1000.0000
877.76,1000.6000
878.00,1006.4000
878.25,998.2000
878.50,1014.8000
878.74,990.8000
878.99,992.0000
879.23,982.0000
879.48,984.8000
879.73,1002.4000
879.97,997.2000
880.22,992.2000
880.47,991.0000
880.71,973.4000
880.96,1016.0000
881.20,985.6000
881.45,995.0000
881.70,1003.2000
881.94,992.2000
882.19,980.0000
882.43,1009.8000
882.68,985.2000
882.92,1018.6000
883.17,991.6000
883.42,1007.6000
883.66,990.4000
883.91,987.2000
884.15,989.8000
884.40,994.0000
884.64,983.0000
884.89,1001.4000
885.14,999.0000
885.38,1010.6000
885.63,995.6000
885.87,983.6000
886.12,1000.0000
886.36,988.4000
886.61,992.0000
886.85,999.0000
887.10,990.2000
887.34,973.2000
887.59,994.8000
887.83,991.2000
888.08,1003.2000
888.32,966.0000
888.57,1004.8000
888.81,998.2000
889.06,1001.6000
889.30,970.6000
889.55,985.6000
889.79,991.8000
890.04,998.4000
890.28,983.8000
890.53,986.8000
890.77,1015.4000
891.02,986.4000
891.26,1002.0000
891.51,987.2000
891.75,999.8000
892.00,989.4000
892.24,986.4000
892.49,998.8000
892.73,1008.6000
892.98,1002.8000
893.22,996.0000
893.47,972.6000
893.71,1012.2000
893.95,1005.8000
894.20,982.0000
894.44,976.6000
894.69,1036.0000
894.93,1044.4000
895.18,993.6000
895.42,1008.0000
895.66,989.2000
895.91,978.0000
896.15,978.8000
896.40,1007.2000
896.64,1017.8000
896.88,989.6000
897.13,1021.6000
897.37,982.8000
897.62,997.8000
897.86,1000.4000
898.10,984.2000
898.35,999.0000
898.59,1001.4000
898.84,1009.4000
899.08,1000.8000
899.32,994.4000
899.57,1005.2000
899.81,994.2000
900.05,983.6000
900.30,1001.8000
900.54,989.6000
900.78,1028.6000
901.03,1005.0000
901.27,984.2000
901.52,988.6000
901.76,992.6000
902.00,993.6000
902.25,997.0000
902.49,983.4000
902.73,1005.2000
902.98,990.8000
903.22,985.4000
903.46,992.4000
903.70,1000.2000
903.95,1000.8000
904.19,1005.0000
904.43,1011.6000
904.68,981.6000
904.92,981.6000
905.16,984.0000
905.41,996.2000
905.65,979.6000
905.89,985.2000
906.13,1032.4000
906.38,991.4000
906.62,1001.2000
906.86,977.8000
907.11,997.8000
907.35,986.0000
907.59,1021.8000
907.83,1032.6000
908.08,997.0000
908.32,975.6000
908.56,1003.8000
908.80,1003.4000
909.05,1011.2000
909.29,1007.6000
909.53,987.2000
909.77,984.0000
910.02,983.8000
910.26,1027.6000
910.50,987.0000
910.74,991.6000
910.98,989.4000
911.23,1019.0000
911.47,998.8000
911.71,1002.0000
911.95,976.2000
912.20,1000.4000
912.44,975.0000
912.68,992.2000
912.92,1000.2000
913.16,1004.2000
913.41,961.2000
913.65,1000.8000
913.89,995.8000
914.13,991.0000
914.37,996.6000
914.61,1012.4000
914.86,990.4000
915.10,998.6000
915.34,996.8000
915.58,994.6000
915.82,991.6000
916.06,978.4000
916.31,996.4000
916.55,999.0000
916.79,1002.6000
917.03,1015.6000
917.27,977.8000
917.51,1010.6000
917.75,995.6000
918.00,981.8000
918.24,1011.6000
918.48,1005.8000
918.72,1030.0000
918.96,1006.4000
919.20,1004.6000
919.44,1028.4000
919.68,1046.0000
919.92,1008.8000
920.17,1005.6000
920.41,997.0000
920.65,995.4000
920.89,998.0000
921.13,1008.4000
921.37,1003.4000
921.61,974.0000
921.85,1000.4000
922.09,996.0000
922.33,1007.0000
922.57,1001.4000
922.81,977.4000
923.05,992.2000
923.30,985.0000
923.54,984.0000
923.78,980.4000
924.02,1003.2000
924.26,984.6000
924.50,991.0000
924.74,992.2000
924.98,981.0000
925.22,1000.4000
925.46,994.6000
925.70,1004.8000
925.94,1016.8000
926.18,991.8000
926.42,1008.0000
926.66,1008.6000
926.90,991.0000
927.14,978.6000
927.38,979.6000
927.62,990.4000
927.86,1027.2000
928.10,1010.0000
928.34,977.4000
928.58,979.8000
928.82,1000.4000
929.06,1001.2000
929.30,1030.0000
929.54,998.4000
929.78,983.2000
930.02,969.6000
930.26,995.8000
930.50,978.4000
930.74,999.8000
930.98,991.6000
931.22,1001.8000
931.46,987.0000
931.70,992.6000
931.94,1011.6000
932.17,979.8000
932.41,1001.6000
932.65,996.8000
932.89,981.6000
933.13,992.4000
933.37,1000.6000
933.61,954.0000
933.85,984.4000
934.09,978.2000
934.33,982.4000
934.57,975.2000
934.81,971.0000
935.05,999.8000
935.28,1005.0000
935.52,988.0000
935.76,979.4000
936.00,988.8000
936.24,1007.2000
936.48,999.6000
936.72,999.0000
936.96,986.4000
937.19,990.4000
937.43,1005.4000
937.67,985.2000
937.91,989.4000
938.15,984.0000
938.39,992.2000
938.63,991.6000
938.86,988.6000
939.10,995.8000
939.34,979.8000
939.58,963.0000
939.82,988.6000
940.06,985.0000
940.30,976.0000
940.53,969.6000
940.77,973.6000
941.01,971.4000
941.25,977.2000
