Wavelength (nm),Intensity
394.27,1010.4000
394.56,1009.4000
394.85,1011.2000
395.14,1002.2000
395.44,999.0000
395.73,1015.4000
396.02,973.6000
396.31,998.0000
396.61,1007.6000
396.90,980.2000
397.19,1012.2000
397.48,1003.6000
397.77,991.0000
398.06,1009.4000
398.36,1000.6000
398.65,999.4000
398.94,992.0000
399.23,983.0000
399.52,993.6000
399.82,1003.2000
400.11,995.0000
400.40,1015.8000
400.69,985.0000
400.98,1004.0000
401.27,1014.0000
401.57,978.0000
401.86,1008.6000
402.15,983.6000
402.44,995.2000
402.73,986.8000
403.02,1016.8000
403.32,987.6000
403.61,1001.6000
403.90,985.4000
404.19,1005.8000
404.48,1015.0000
404.77,1020.0000
405.06,1005.4000
405.36,1014.4000
405.65,1004.6000
405.94,974.4000
406.23,1013.4000
406.52,1019.0000
406.81,1021.2000
407.10,994.4000
407.40,1010.0000
407.69,1012.8000
407.98,1006.0000
408.27,999.6000
408.56,983.4000
408.85,1031.0000
409.14,982.4000
409.43,1010.6000
409.72,990.6000
410.02,1039.4000
410.31,997.6000
410.60,1008.0000
410.89,1013.2000
411.18,995.6000
411.47,1001.8000
411.76,999.2000
412.05,1005.2000
412.34,1002.4000
412.63,991.2000
412.93,1044.2000
413.22,1020.2000
413.51,993.2000
413.80,1015.2000
414.09,988.6000
414.38,997.0000
414.67,1004.6000
414.96,994.8000
415.25,1030.0000
415.54,1012.2000
415.83,973.8000
416.12,983.4000
416.41,975.2000
416.70,1004.0000
417.00,1020.8000
417.29,1006.8000
417.58,999.4000
417.87,996.0000
418.16,1007.8000
418.45,1001.0000
418.74,978.0000
419.03,991.8000
419.32,1026.4000
419.61,1014.0000
419.90,1008.6000
420.19,1009.2000
420.48,1001.8000
420.77,974.0000
421.06,985.6000
421.35,1001.2000
421.64,995.6000
421.93,989.8000
422.22,992.0000
422.51,1021.2000
422.80,1006.0000
423.09,990.4000
423.38,1030.0000
423.67,999.4000
423.96,992.8000
424.25,989.4000
424.54,988.8000
424.83,974.6000
425.12,991.8000
425.41,1006.2000
425.70,1057.2000
425.99,1009.0000
426.28,1003.8000
426.57,1005.8000
426.86,996.8000
427.15,1008.8000
427.44,1032.2000
427.73,1023.6000
428.02,1003.0000
428.31,1007.6000
428.60,1020.6000
428.89,1010.2000
429.18,1003.2000
429.47,1007.4000
429.76,986.2000
430.05,991.2000
430.34,1018.2000
430.63,992.4000
430.92,1025.6000
431.21,1021.6000
431.50,990.2000
431.79,1001.6000
432.08,985.2000
432.37,991.0000
432.66,991.8000
432.94,992.8000
433.23,994.0000
433.52,1006.8000
433.81,1003.0000
434.10,1046.6000
434.39,1000.0000
434.68,1017.6000
434.97,984.0000
435.26,991.8000
435.55,999.8000
435.84,1005.0000
436.13,995.8000
436.42,1006.2000
436.71,994.2000
436.99,984.8000
437.28,992.2000
437.57,1012.4000
437.86,985.6000
438.15,1005.4000
438.44,990.6000
438.73,1004.2000
439.02,1010.0000
439.31,1025.0000
439.60,1000.4000
439.88,994.0000
440.17,993.2000
440.46,1010.8000
440.75,984.6000
441.04,979.2000
441.33,1018.8000
441.62,1014.0000
441.91,982.8000
442.20,988.8000
442.48,986.2000
442.77,987.4000
443.06,1005.4000
443.35,981.2000
443.64,990.2000
443.93,988.4000
444.22,1003.0000
444.50,1015.4000
444.79,992.4000
445.08,997.6000
445.37,1008.4000
445.66,991.0000
445.95,983.2000
446.24,984.6000
446.52,990.0000
446.81,1026.6000
447.10,972.8000
447.39,995.0000
447.68,991.0000
447.97,972.0000
448.25,1009.0000
448.54,1013.0000
448.83,1000.8000
449.12,1022.4000
449.41,996.0000
449.69,1002.4000
449.98,991.0000
450.27,994.4000
450.56,982.4000
450.85,1005.0000
451.14,985.4000
451.42,985.2000
451.71,993.2000
452.00,994.8000
452.29,1006.2000
452.58,997.2000
452.86,989.2000
453.15,1002.4000
453.44,1000.0000
453.73,1006.8000
454.01,987.8000
454.30,1050.6000
454.59,975.4000
454.88,989.8000
455.17,974.6000
455.45,1003.2000
455.74,1031.2000
456.03,1006.2000
456.32,993.6000
456.60,991.0000
456.89,996.6000
457.18,983.0000
457.47,989.6000
457.76,990.6000
458.04,985.2000
458.33,997.2000
458.62,991.2000
458.91,972.6000
459.19,977.8000
459.48,981.2000
459.77,984.2000
460.06,993.0000
460.34,1009.6000
460.63,987.6000
460.92,992.0000
461.20,985.8000
461.49,999.4000
461.78,986.0000
462.07,983.2000
462.35,999.8000
462.64,991.8000
462.93,1002.8000
463.22,1011.8000
463.50,1003.6000
463.79,998.0000
464.08,1009.0000
464.36,1001.2000
464.65,995.4000
464.94,989.6000
465.22,990.4000
465.51,980.0000
465.80,1021.4000
466.09,982.2000
466.37,1008.6000
466.66,1018.6000
466.95,990.4000
467.23,980.0000
467.52,1007.2000
467.81,1026.8000
468.09,977.4000
468.38,995.6000
468.67,1021.8000
468.95,992.0000
469.24,981.0000
469.53,995.0000
469.81,1016.8000
470.10,991.8000
470.39,993.8000
470.67,988.2000
470.96,1002.0000
471.25,980.4000
471.53,1016.2000
471.82,996.4000
472.11,1004.0000
472.39,994.0000
472.68,1000.0000
472.97,979.4000
473.25,1002.4000
473.54,986.8000
473.82,998.4000
474.11,994.2000
474.40,996.4000
474.68,1018.6000
474.97,1017.6000
475.26,1008.0000
475.54,987.2000
475.83,989.0000
476.11,992.6000
476.40,1005.0000
476.69,998.6000
476.97,1017.6000
477.26,998.8000
477.55,1015.2000
477.83,977.0000
478.12,989.0000
478.40,994.6000
478.69,995.2000
478.98,1001.4000
479.26,982.8000
479.55,994.6000
479.83,986.2000
480.12,1001.6000
480.40,1008.0000
480.69,981.8000
480.98,990.4000
481.26,1014.8000
481.55,976.6000
481.83,998.4000
482.12,980.0000
482.41,990.0000
482.69,984.4000
482.98,1002.2000
483.26,1015.2000
483.55,982.4000
483.83,982.8000
484.12,1003.6000
484.40,1002.0000
484.69,974.0000
484.98,1001.6000
485.26,985.0000
485.55,1000.8000
485.83,972.4000
486.12,995.8000
486.40,993.4000
486.69,996.8000
486.97,997.4000
487.26,1000.6000
487.54,988.2000
487.83,989.4000
488.11,985.4000
488.40,1026.6000
488.68,1015.2000
488.97,1002.6000
489.26,999.2000
489.54,1012.2000
489.83,991.8000
490.11,995.2000
490.40,1003.8000
490.68,998.6000
490.97,973.4000
491.25,996.6000
491.54,981.6000
491.82,1002.6000
492.11,997.0000
492.39,1013.8000
492.68,984.4000
492.96,1008.2000
493.24,983.4000
493.53,976.6000
493.81,1019.6000
494.10,978.2000
494.38,982.2000
494.67,990.6000
494.95,1015.2000
495.24,981.0000
495.52,1010.8000
495.81,1014.0000
496.09,1011.4000
496.38,969.4000
496.66,1004.6000
496.95,991.4000
497.23,986.0000
497.51,982.6000
497.80,999.6000
498.08,991.8000
498.37,979.0000
498.65,998.8000
498.94,1024.4000
499.22,1000.2000
499.51,986.6000
499.79,996.4000
500.07,984.0000
500.36,1013.0000
500.64,999.8000
500.93,994.4000
501.21,1023.6000
501.50,987.0000
501.78,994.8000
502.06,986.2000
502.35,980.6000
502.63,973.6000
502.92,996.4000
503.20,1011.4000
503.48,1021.6000
503.77,997.4000
504.05,989.2000
504.34,980.4000
504.62,1007.4000
504.90,1009.0000
505.19,1012.4000
505.47,991.4000
505.76,989.6000
506.04,983.4000
506.32,1012.0000
506.61,985.0000
506.89,1010.4000
507.17,993.0000
507.46,1007.2000
507.74,1022.6000
508.03,996.2000
508.31,1011.6000
508.59,971.0000
508.88,988.6000
509.16,1000.0000
509.44,1014.6000
509.73,999.8000
510.01,992.0000
510.29,1006.8000
510.58,977.8000
510.86,1003.0000
511.14,1007.6000
511.43,991.0000
511.71,1001.0000
511.99,992.4000
512.28,992.8000
512.56,981.2000
512.84,992.4000
513.13,977.2000
513.41,991.2000
513.69,990.0000
513.98,964.4000
514.26,1000.2000
514.54,993.0000
514.83,997.0000
515.11,998.6000
515.39,1012.2000
515.68,1004.2000
515.96,993.4000
516.24,977.4000
516.53,984.0000
516.81,1021.0000
517.09,973.6000
517.37,991.8000
517.66,975.4000
517.94,982.2000
518.22,997.4000
518.51,982.8000
518.79,1000.0000
519.07,989.4000
519.35,1000.2000
519.64,993.4000
519.92,997.0000
520.20,1004.6000
520.48,997.6000
520.77,999.6000
521.05,975.2000
521.33,971.4000
521.62,978.6000
521.90,1001.0000
522.18,987.8000
522.46,984.6000
522.75,990.4000
523.03,999.8000
523.31,982.4000
523.59,1011.6000
523.88,1009.4000
524.16,994.0000
524.44,1019.0000
524.72,1016.0000
525.00,1008.0000
525.29,999.4000
525.57,977.2000
525.85,991.2000
526.13,979.8000
526.42,970.6000
526.70,986.0000
526.98,979.2000
527.26,993.6000
527.54,996.0000
527.83,999.2000
528.11,978.4000
528.39,1008.2000
528.67,994.2000
528.95,996.0000
529.24,968.6000
529.52,1000.8000
529.80,1005.4000
530.08,1012.6000
530.36,997.8000
530.65,1011.2000
530.93,991.2000
531.21,991.8000
531.49,987.0000
531.77,999.0000
532.05,993.8000
532.34,995.4000
532.62,984.4000
532.90,996.2000
533.18,1004.4000
533.46,1003.6000
533.74,990.6000
534.03,988.6000
534.31,990.6000
534.59,989.6000
534.87,996.0000
535.15,1006.2000
535.43,1003.8000
535.71,999.6000
536.00,1004.8000
536.28,986.2000
536.56,998.8000
536.84,1008.4000
537.12,988.8000
537.40,983.8000
537.68,1007.6000
537.97,1004.4000
538.25,985.4000
538.53,1002.6000
538.81,1013.6000
539.09,980.2000
539.37,994.8000
539.65,999.8000
539.93,982.6000
540.21,985.2000
540.50,981.6000
540.78,1011.6000
541.06,1014.4000
541.34,1001.0000
541.62,1004.0000
541.90,1003.0000
542.18,987.6000
542.46,1004.6000
542.74,999.8000
543.02,993.8000
543.30,985.6000
543.58,995.2000
543.87,993.0000
544.15,983.0000
544.43,1007.8000
544.71,1001.6000
544.99,997.0000
545.27,995.0000
545.55,984.8000
545.83,988.8000
546.11,995.0000
546.39,994.6000
546.67,999.6000
546.95,986.8000
547.23,972.6000
547.51,982.4000
547.79,1003.4000
548.07,1003.6000
548.35,998.0000
548.63,973.6000
548.91,1016.2000
549.20,992.4000
549.48,1032.0000
549.76,986.0000
550.04,985.0000
550.32,996.0000
550.60,986.0000
550.88,968.8000
551.16,1000.6000
551.44,998.6000
551.72,977.4000
552.00,980.8000
552.28,997.8000
552.56,1019.2000
552.84,1006.2000
553.12,992.8000
553.40,985.0000
553.68,996.2000
553.96,990.4000
554.24,983.6000
554.52,1005.8000
554.80,986.0000
555.08,999.6000
555.36,958.6000
555.64,1004.6000
555.92,986.0000
556.19,992.4000
556.47,992.6000
556.75,1005.4000
557.03,996.4000
557.31,1010.8000
557.59,1004.8000
557.87,977.6000
558.15,996.8000
558.43,984.2000
558.71,979.2000
558.99,989.2000
559.27,1005.2000
559.55,986.8000
559.83,984.6000
560.11,995.8000
560.39,979.2000
560.67,983.8000
560.95,1003.0000
561.23,993.8000
561.50,988.6000
561.78,990.8000
562.06,992.6000
562.34,986.8000
562.62,993.8000
562.90,1012.8000
563.18,1001.4000
563.46,980.0000
563.74,985.2000
564.02,1013.4000
564.30,989.0000
564.57,996.4000
564.85,969.8000
565.13,1009.0000
565.41,989.6000
565.69,993.0000
565.97,1002.0000
566.25,980.0000
566.53,990.2000
566.81,1012.2000
567.08,1003.0000
567.36,979.2000
567.64,989.4000
567.92,1005.2000
568.20,987.8000
568.48,990.4000
568.76,1005.6000
569.04,997.2000
569.31,1019.2000
569.59,1007.2000
569.87,987.4000
570.15,982.2000
570.43,986.4000
570.71,1001.4000
570.99,997.8000
571.26,995.4000
571.54,1008.2000
571.82,987.0000
572.10,1000.4000
572.38,989.8000
572.66,996.6000
572.93,990.4000
573.21,989.6000
573.49,1000.8000
573.77,1014.2000
574.05,967.6000
574.32,977.2000
574.60,995.6000
574.88,997.4000
575.16,1018.4000
575.44,997.8000
575.71,1001.0000
575.99,1055.6000
576.27,1008.8000
576.55,977.4000
576.83,1017.4000
577.10,1001.4000
577.38,1010.4000
577.66,985.8000
577.94,997.4000
578.22,974.8000
578.49,1004.6000
578.77,995.4000
579.05,1017.0000
579.33,1000.0000
579.60,1002.8000
579.88,1002.4000
580.16,996.6000
580.44,1003.4000
580.72,975.2000
580.99,998.8000
581.27,983.4000
581.55,999.2000
581.83,988.2000
582.10,991.4000
582.38,995.6000
582.66,1012.2000
582.94,995.6000
583.21,1009.6000
583.49,1003.2000
583.77,987.0000
584.04,1001.8000
584.32,1010.2000
584.60,998.2000
584.88,977.0000
585.15,1005.6000
585.43,977.2000
585.71,985.6000
585.98,972.8000
586.26,981.6000
586.54,988.8000
586.82,1000.6000
587.09,982.8000
587.37,1001.0000
587.65,978.2000
587.92,993.6000
588.20,997.4000
588.48,1030.6000
588.75,991.0000
589.03,980.8000
589.31,990.2000
589.59,991.2000
589.86,1020.4000
590.14,986.4000
590.42,1006.4000
590.69,997.4000
590.97,979.0000
591.25,978.4000
591.52,990.4000
591.80,1012.4000
592.08,993.0000
592.35,996.2000
592.63,1001.0000
592.91,1007.2000
593.18,988.6000
593.46,997.6000
593.73,982.2000
594.01,995.4000
594.29,1031.0000
594.56,980.2000
594.84,1006.0000
595.12,1009.2000
595.39,985.4000
595.67,988.4000
595.95,999.4000
596.22,986.4000
596.50,987.0000
596.77,978.8000
597.05,1018.8000
597.33,1011.4000
597.60,988.8000
597.88,993.6000
598.15,1001.6000
598.43,985.2000
598.71,984.4000
598.98,1054.0000
599.26,1017.0000
599.53,984.4000
599.81,1007.6000
600.09,983.4000
600.36,984.4000
600.64,996.6000
600.91,992.4000
601.19,991.2000
601.47,987.4000
601.74,983.8000
602.02,992.8000
602.29,986.4000
602.57,1004.8000
602.84,991.2000
603.12,985.0000
603.40,989.4000
603.67,988.2000
603.95,995.0000
604.22,1029.6000
604.50,996.2000
604.77,1006.6000
605.05,985.0000
605.32,1002.8000
605.60,1010.2000
605.87,986.6000
606.15,981.8000
606.42,994.2000
606.70,992.0000
606.98,997.6000
607.25,994.2000
607.53,1005.0000
607.80,992.0000
608.08,998.2000
608.35,996.4000
608.63,988.0000
608.90,1014.6000
609.18,994.0000
609.45,975.6000
609.73,1015.2000
610.00,1021.4000
610.28,1005.6000
610.55,989.4000
610.83,984.6000
611.10,995.2000
611.38,1003.2000
611.65,1001.0000
611.93,981.4000
612.20,1008.8000
612.48,965.0000
612.75,1004.4000
613.03,986.8000
613.30,993.0000
613.57,989.6000
613.85,981.0000
614.12,1022.6000
614.40,980.4000
614.67,995.0000
614.95,1002.6000
615.22,993.4000
615.50,978.6000
615.77,1016.8000
616.05,990.0000
616.32,1003.8000
616.59,994.0000
616.87,987.4000
617.14,1005.0000
617.42,995.6000
617.69,1004.2000
617.97,974.4000
618.24,989.0000
618.51,964.2000
618.79,989.2000
619.06,977.0000
619.34,996.6000
619.61,981.8000
619.88,1022.0000
620.16,1003.0000
620.43,1019.0000
620.71,986.6000
620.98,985.0000
621.26,987.2000
621.53,987.0000
621.80,1009.2000
622.08,990.0000
622.35,985.8000
622.62,1007.0000
622.90,1002.8000
623.17,983.4000
623.45,999.0000
623.72,1002.6000
623.99,994.0000
624.27,1001.2000
624.54,1015.8000
624.81,1019.4000
625.09,1001.8000
625.36,985.8000
625.64,1016.0000
625.91,1000.8000
626.18,983.8000
626.46,986.2000
626.73,1032.0000
627.00,1009.0000
627.28,989.6000
627.55,1000.2000
627.82,993.6000
628.10,1001.4000
628.37,984.6000
628.64,983.6000
628.92,979.0000
629.19,989.0000
629.46,989.4000
629.74,976.4000
630.01,980.0000
630.28,993.2000
630.56,987.0000
630.83,970.8000
631.10,990.8000
631.37,997.8000
631.65,979.2000
631.92,987.6000
632.19,996.6000
632.47,1006.8000
632.74,998.6000
633.01,1008.2000
633.28,990.4000
633.56,994.4000
633.83,968.0000
634.10,979.2000
634.38,989.8000
634.65,997.0000
634.92,995.0000
635.19,1017.4000
635.47,997.2000
635.74,990.0000
636.01,969.6000
636.28,974.8000
636.56,987.2000
636.83,983.0000
637.10,1013.8000
637.37,1007.8000
637.65,992.2000
637.92,981.0000
638.19,977.8000
638.46,1007.8000
638.74,989.2000
639.01,1009.0000
639.28,969.4000
639.55,1006.0000
639.83,976.4000
640.10,991.8000
640.37,998.0000
640.64,985.6000
640.91,997.6000
641.19,998.2000
641.46,992.0000
641.73,1020.4000
642.00,988.0000
642.28,1008.6000
642.55,1003.4000
642.82,990.4000
643.09,1006.4000
643.36,997.2000
643.63,1000.6000
643.91,1002.6000
644.18,991.8000
644.45,995.8000
644.72,1015.2000
644.99,985.8000
645.27,973.4000
645.54,1001.0000
645.81,1033.6000
646.08,1008.2000
646.35,971.4000
646.62,993.4000
646.90,996.4000
647.17,1016.0000
647.44,991.0000
647.71,998.6000
647.98,978.0000
648.25,1000.0000
648.52,970.0000
648.80,987.4000
649.07,987.6000
649.34,994.0000
649.61,980.8000
649.88,1017.6000
650.15,1016.8000
650.42,992.6000
650.69,1000.8000
650.97,1011.0000
651.24,1008.2000
651.51,1006.8000
651.78,1004.4000
652.05,984.6000
652.32,991.8000
652.59,1026.4000
652.86,992.8000
653.13,974.4000
653.41,1005.8000
653.68,1009.6000
653.95,990.6000
654.22,983.6000
654.49,1000.0000
654.76,974.0000
655.03,1019.0000
655.30,985.8000
655.57,985.2000
655.84,999.4000
656.11,1016.6000
656.38,994.8000
656.66,985.0000
656.93,976.4000
657.20,993.8000
657.47,1018.2000
657.74,1000.8000
658.01,1010.2000
658.28,986.0000
658.55,991.8000
658.82,1007.6000
659.09,1006.4000
659.36,1005.6000
659.63,991.8000
659.90,995.2000
660.17,1015.2000
660.44,983.4000
660.71,979.2000
660.98,1009.2000
661.25,993.6000
661.52,993.8000
661.79,984.2000
662.06,993.0000
662.33,983.0000
662.60,980.2000
662.87,1013.2000
663.14,973.2000
663.41,986.2000
663.68,972.2000
663.95,974.6000
664.22,1002.0000
664.49,1002.4000
664.76,968.4000
665.03,968.6000
665.30,983.6000
665.57,983.2000
665.84,985.4000
666.11,979.0000
666.38,985.4000
666.65,990.2000
666.92,1026.6000
667.19,991.6000
667.46,1006.8000
667.73,1000.0000
668.00,989.2000
668.27,990.2000
668.54,1013.4000
668.81,980.0000
669.08,993.2000
669.35,999.4000
669.62,1020.4000
669.89,987.6000
670.16,1020.4000
670.42,988.0000
670.69,995.2000
670.96,995.2000
671.23,999.4000
671.50,980.2000
671.77,985.4000
672.04,990.0000
672.31,987.6000
672.58,979.0000
672.85,990.6000
673.12,987.6000
673.39,1002.0000
673.65,980.0000
673.92,1008.6000
674.19,979.6000
674.46,992.8000
674.73,996.2000
675.00,988.4000
675.27,994.6000
675.54,1001.0000
675.81,993.4000
676.07,993.6000
676.34,1029.0000
676.61,1021.4000
676.88,971.8000
677.15,985.6000
677.42,1010.8000
677.69,996.0000
677.96,1001.2000
678.22,1000.4000
678.49,991.0000
678.76,982.8000
679.03,986.6000
679.30,978.0000
679.57,982.4000
679.83,988.4000
680.10,992.6000
680.37,984.6000
680.64,1012.2000
680.91,967.8000
681.18,992.4000
681.44,987.8000
681.71,998.4000
681.98,1006.4000
682.25,993.4000
682.52,994.6000
682.79,992.4000
683.05,1008.4000
683.32,993.6000
683.59,1002.4000
683.86,992.6000
684.13,1008.6000
684.39,979.2000
684.66,997.8000
684.93,1000.4000
685.20,994.8000
685.47,977.0000
685.73,988.4000
686.00,978.8000
686.27,1003.6000
686.54,995.2000
686.80,1011.8000
687.07,999.2000
687.34,974.6000
687.61,999.2000
687.88,985.4000
688.14,984.6000
688.41,1009.6000
688.68,972.2000
688.95,983.2000
689.21,996.8000
689.48,1023.0000
689.75,997.6000
690.02,979.2000
690.28,988.2000
690.55,997.8000
690.82,970.4000
691.08,1005.8000
691.35,991.4000
691.62,1001.4000
691.89,1003.4000
692.15,1008.0000
692.42,983.8000
692.69,976.4000
692.95,977.0000
693.22,995.2000
693.49,980.4000
693.76,984.4000
694.02,992.2000
694.29,993.0000
694.56,985.0000
694.82,1003.2000
695.09,972.2000
695.36,982.6000
695.62,981.0000
695.89,1009.0000
696.16,989.0000
696.43,1014.4000
696.69,1016.6000
696.96,1023.0000
697.23,988.6000
697.49,998.0000
697.76,1002.2000
698.03,985.6000
698.29,988.6000
698.56,998.4000
698.82,990.0000
699.09,999.2000
699.36,997.4000
699.62,996.0000
699.89,997.6000
700.16,974.8000
700.42,1000.4000
700.69,1018.4000
700.96,996.6000
701.22,1016.2000
701.49,981.6000
701.75,1013.0000
702.02,978.2000
702.29,976.4000
702.55,977.0000
702.82,997.0000
703.09,991.2000
703.35,1027.6000
703.62,992.6000
703.88,1020.0000
704.15,977.6000
704.42,1008.0000
704.68,978.6000
704.95,1016.0000
705.21,987.2000
705.48,999.0000
705.75,986.2000
706.01,988.8000
706.28,975.8000
706.54,980.6000
706.81,1003.6000
707.07,988.0000
707.34,980.2000
707.61,1004.6000
707.87,997.4000
708.14,997.8000
708.40,989.0000
708.67,997.0000
708.93,997.4000
709.20,980.4000
709.46,998.6000
709.73,1010.6000
709.99,1005.0000
710.26,974.4000
710.53,986.4000
710.79,967.0000
711.06,1004.2000
711.32,1064.2000
711.59,1022.8000
711.85,1020.6000
712.12,994.2000
712.38,979.0000
712.65,998.2000
712.91,1000.4000
713.18,1005.8000
713.44,1001.6000
713.71,983.2000
713.97,1001.8000
714.24,986.6000
714.50,989.4000
714.77,993.8000
715.03,1000.0000
715.30,1011.8000
715.56,1001.4000
715.83,992.8000
716.09,1003.6000
716.36,1036.0000
716.62,996.6000
716.89,974.8000
717.15,1013.6000
717.42,976.0000
717.68,977.0000
717.94,985.4000
718.21,996.8000
718.47,1006.6000
718.74,987.2000
719.00,1000.6000
719.27,1005.6000
719.53,982.2000
719.80,995.4000
720.06,996.0000
720.32,1029.6000
720.59,1004.2000
720.85,990.8000
721.12,971.8000
721.38,1012.2000
721.65,979.8000
721.91,996.4000
722.17,987.6000
722.44,999.6000
722.70,985.8000
722.97,994.6000
723.23,1002.4000
723.49,983.2000
723.76,983.6000
724.02,1028.2000
724.29,1005.8000
724.55,988.8000
724.81,1015.6000
725.08,1008.8000
725.34,1002.8000
725.61,979.8000
725.87,1012.2000
726.13,997.6000
726.40,998.6000
726.66,987.8000
726.92,994.8000
727.19,994.2000
727.45,991.2000
727.71,998.4000
727.98,990.8000
728.24,1011.2000
728.51,990.8000
728.77,983.6000
729.03,1000.2000
729.30,999.2000
729.56,991.6000
729.82,1019.6000
730.09,992.8000
730.35,977.0000
730.61,1010.4000
730.88,986.4000
731.14,990.6000
731.40,1003.6000
731.67,988.8000
731.93,995.0000
732.19,1002.6000
732.45,1004.6000
732.72,981.8000
732.98,995.4000
733.24,993.6000
733.51,989.4000
733.77,984.4000
734.03,1006.6000
734.30,996.2000
734.56,1001.8000
734.82,972.8000
735.08,1007.4000
735.35,993.8000
735.61,984.8000
735.87,1008.2000
736.14,1008.0000
736.40,1005.8000
736.66,1007.0000
736.92,1009.4000
737.19,991.0000
737.45,1010.6000
737.71,987.4000
737.97,998.8000
738.24,1002.4000
738.50,995.0000
738.76,1005.8000
739.02,980.4000
739.29,1012.6000
739.55,1022.8000
739.81,997.2000
740.07,996.2000
740.33,988.8000
740.60,984.4000
740.86,1015.0000
741.12,1009.8000
741.38,985.4000
741.65,1007.0000
741.91,988.8000
742.17,998.0000
742.43,983.0000
742.69,1002.0000
742.96,1033.8000
743.22,999.0000
743.48,1003.8000
743.74,1002.4000
744.00,994.4000
744.26,1003.0000
744.53,988.8000
744.79,986.6000
745.05,980.2000
745.31,996.4000
745.57,1004.2000
745.84,1003.8000
746.10,985.4000
746.36,987.8000
746.62,988.6000
746.88,990.8000
747.14,995.2000
747.40,987.0000
747.67,986.8000
747.93,1009.6000
748.19,987.0000
748.45,999.0000
748.71,986.0000
748.97,1007.8000
749.23,987.2000
749.50,1010.0000
749.76,993.6000
750.02,977.4000
750.28,1007.8000
750.54,987.2000
750.80,995.8000
751.06,983.4000
751.32,997.4000
751.59,996.2000
751.85,1007.2000
752.11,1013.8000
752.37,1021.0000
752.63,991.2000
752.89,1014.0000
753.15,1023.4000
753.41,990.2000
753.67,1001.8000
753.93,1009.0000
754.19,988.4000
754.46,1015.8000
754.72,970.6000
754.98,993.2000
755.24,1017.0000
755.50,978.8000
755.76,994.4000
756.02,1006.4000
756.28,981.0000
756.54,1000.6000
756.80,1022.6000
757.06,1013.6000
757.32,971.8000
757.58,991.6000
757.84,1018.2000
758.10,976.6000
758.36,974.2000
758.62,978.4000
758.88,988.6000
759.14,1013.2000
759.40,1006.0000
759.66,983.8000
759.92,1000.8000
760.18,993.0000
760.44,995.0000
760.70,993.0000
760.96,999.8000
761.22,994.0000
761.48,979.8000
761.74,1000.4000
762.00,992.4000
762.26,1001.2000
762.52,994.4000
762.78,999.2000
763.04,992.2000
763.30,1013.2000
763.56,975.2000
763.82,982.6000
764.08,1004.4000
764.34,1005.6000
764.60,1000.6000
764.86,991.6000
765.12,982.2000
765.38,999.8000
765.64,1009.4000
765.90,1038.4000
766.16,981.8000
766.42,994.4000
766.68,993.4000
766.94,981.2000
767.20,989.4000
767.46,982.0000
767.72,985.8000
767.98,988.8000
768.23,1005.8000
768.49,997.8000
768.75,1002.8000
769.01,1009.4000
769.27,977.0000
769.53,1002.6000
769.79,1005.8000
770.05,989.0000
770.31,989.4000
770.57,1013.0000
770.83,976.0000
771.08,999.0000
771.34,988.8000
771.60,1002.0000
771.86,980.6000
772.12,981.2000
772.38,1003.6000
772.64,986.8000
772.90,990.0000
773.16,992.0000
773.41,996.4000
773.67,980.4000
773.93,996.8000
774.19,997.0000
774.45,1002.2000
774.71,1015.8000
774.97,980.2000
775.22,983.6000
775.48,1001.0000
775.74,978.2000
776.00,1009.8000
776.26,992.6000
776.52,975.2000
776.77,992.6000
777.03,1005.6000
777.29,994.6000
777.55,985.0000
777.81,982.6000
778.07,990.6000
778.32,992.0000
778.58,984.2000
778.84,982.2000
779.10,995.0000
779.36,997.0000
779.61,986.2000
779.87,994.4000
780.13,978.4000
780.39,998.0000
780.65,979.4000
780.90,984.4000
781.16,997.0000
781.42,967.8000
781.68,988.0000
781.94,995.4000
782.19,991.6000
782.45,992.2000
782.71,1001.6000
782.97,1003.6000
783.22,1018.6000
783.48,990.8000
783.74,988.6000
784.00,993.0000
784.25,998.8000
784.51,982.4000
784.77,1017.4000
785.03,997.0000
785.28,986.2000
785.54,981.4000
785.80,992.2000
786.06,984.2000
786.31,983.0000
786.57,984.2000
786.83,998.4000
787.08,998.2000
787.34,980.8000
787.60,1008.8000
787.86,991.8000
788.11,996.6000
788.37,989.2000
788.63,997.2000
788.88,1026.4000
789.14,994.6000
789.40,998.2000
789.65,998.4000
789.91,1010.6000
790.17,982.0000
790.42,990.2000
790.68,994.8000
790.94,987.2000
791.20,1035.0000
791.45,1018.6000
791.71,997.4000
791.97,983.8000
792.22,1005.8000
792.48,1001.6000
792.73,966.6000
792.99,1001.6000
793.25,962.2000
793.50,997.4000
793.76,999.2000
794.02,976.6000
794.27,976.8000
794.53,1010.4000
794.79,1000.8000
795.04,1009.6000
795.30,990.2000
795.55,1000.6000
795.81,979.2000
796.07,1007.6000
796.32,994.4000
796.58,994.6000
796.84,989.0000
797.09,996.0000
797.35,1005.2000
797.60,977.8000
797.86,995.0000
798.12,1008.0000
798.37,998.2000
798.63,1005.6000
798.88,988.0000
799.14,995.0000
799.39,989.8000
799.65,999.4000
799.91,971.6000
800.16,989.8000
800.42,999.2000
800.67,1009.4000
800.93,997.6000
801.18,966.4000
801.44,1005.8000
801.70,995.6000
801.95,999.2000
802.21,991.6000
802.46,982.0000
802.72,998.2000
802.97,1006.8000
803.23,1008.6000
803.48,997.2000
803.74,963.8000
803.99,979.4000
804.25,993.2000
804.50,1009.8000
804.76,985.4000
805.02,990.8000
805.27,1006.0000
805.53,1015.6000
805.78,969.0000
806.04,1013.6000
806.29,974.0000
806.55,1013.6000
806.80,991.0000
807.06,1029.8000
807.31,974.2000
807.56,991.0000
807.82,1003.6000
808.07,1004.2000
808.33,993.6000
808.58,1002.6000
808.84,1010.8000
809.09,995.2000
809.35,1015.2000
809.60,978.6000
809.86,994.2000
810.11,1017.4000
810.37,985.0000
810.62,973.0000
810.88,982.4000
811.13,1003.2000
811.38,987.6000
811.64,1001.4000
811.89,994.6000
812.15,979.6000
812.40,996.4000
812.66,1007.6000
812.91,1005.2000
813.16,983.0000
813.42,999.2000
813.67,999.0000
813.93,984.8000
814.18,1001.6000
814.44,1038.0000
814.69,990.6000
814.94,998.0000
815.20,981.6000
815.45,978.4000
815.71,994.8000
815.96,972.6000
816.21,983.0000
816.47,1000.8000
816.72,977.6000
816.97,992.0000
817.23,985.6000
817.48,974.8000
817.74,985.0000
817.99,981.6000
818.24,1014.0000
818.50,992.6000
818.75,1018.0000
819.00,993.0000
819.26,1001.6000
819.51,1041.2000
819.76,969.8000
820.02,986.8000
820.27,994.4000
820.52,969.4000
820.78,975.8000
821.03,999.2000
821.28,1001.0000
821.54,1010.4000
821.79,980.8000
822.04,981.8000
822.30,976.4000
822.55,1012.4000
822.80,999.8000
823.06,995.4000
823.31,990.0000
823.56,995.8000
823.82,997.4000
824.07,1004.2000
824.32,979.8000
824.57,988.8000
824.83,996.4000
825.08,1005.4000
825.33,1011.4000
825.59,970.6000
825.84,989.4000
826.09,995.4000
826.34,978.8000
826.60,990.6000
826.85,986.6000
827.10,981.2000
827.35,1009.4000
827.61,969.0000
827.86,994.6000
828.11,997.0000
828.36,971.0000
828.62,986.0000
828.87,1011.8000
829.12,977.8000
829.37,999.8000
829.63,983.6000
829.88,1002.2000
830.13,1005.2000
830.38,1002.0000
830.63,973.4000
830.89,976.0000
831.14,994.8000
831.39,997.4000
831.64,993.8000
831.89,994.0000
832.15,977.4000
832.40,989.0000
832.65,1001.0000
832.90,990.2000
833.15,992.6000
833.41,996.8000
833.66,1040.2000
833.91,1013.0000
834.16,992.8000
834.41,1006.2000
834.67,972.2000
834.92,1005.6000
835.17,988.0000
835.42,985.8000
835.67,990.4000
835.92,981.4000
836.17,978.6000
836.43,995.4000
836.68,1003.4000
836.93,977.0000
837.18,990.0000
837.43,968.2000
837.68,1003.0000
837.93,973.0000
838.19,984.0000
838.44,980.2000
838.69,996.2000
838.94,981.6000
839.19,971.4000
839.44,987.4000
839.69,992.6000
839.94,985.8000
840.20,1003.8000
840.45,1017.0000
840.70,1013.2000
840.95,992.6000
841.20,981.8000
841.45,983.6000
841.70,997.0000
841.95,990.4000
842.20,993.0000
842.45,1018.6000
842.70,996.4000
842.95,972.2000
843.21,992.2000
843.46,994.4000
843.71,990.8000
843.96,1006.2000
844.21,979.4000
844.46,979.8000
844.71,983.4000
844.96,1027.0000
845.21,991.2000
845.46,979.0000
845.71,1000.6000
845.96,989.8000
846.21,1001.2000
846.46,1002.2000
846.71,979.8000
846.96,967.4000
847.21,1004.2000
847.46,987.2000
847.71,982.4000
847.96,985.8000
848.21,982.6000
848.46,991.4000
848.71,984.2000
848.96,997.8000
849.21,1006.4000
849.46,977.8000
849.71,998.0000
849.96,968.0000
850.21,983.0000
850.46,987.8000
850.71,987.2000
850.96,952.2000
851.21,986.6000
851.46,978.4000
851.71,987.2000
851.96,989.4000
852.21,983.4000
852.46,978.4000
852.71,991.0000
852.96,982.4000
853.21,984.0000
853.46,994.2000
853.71,1004.8000
853.96,979.2000
854.21,991.4000
854.46,1033.0000
854.70,990.8000
854.95,992.2000
855.20,985.6000
855.45,993.0000
855.70,997.8000
855.95,986.8000
856.20,994.2000
856.45,990.2000
856.70,999.4000
856.95,1001.4000
857.20,979.6000
857.44,1007.4000
857.69,975.2000
857.94,1003.4000
858.19,1000.6000
858.44,987.2000
858.69,1003.0000
858.94,998.2000
859.19,986.6000
859.44,995.4000
859.68,997.8000
859.93,996.8000
860.18,975.4000
860.43,995.4000
860.68,1020.8000
860.93,997.2000
861.18,989.8000
861.42,1007.0000
861.67,999.4000
861.92,998.6000
862.17,1006.8000
862.42,997.8000
862.67,995.2000
862.91,1000.6000
863.16,995.6000
863.41,995.2000
863.66,1008.2000
863.91,1015.8000
864.16,1005.0000
864.40,993.4000
864.65,1001.2000
864.90,975.4000
865.15,980.2000
865.40,988.4000
865.64,1008.6000
865.89,996.6000
866.14,998.2000
866.39,984.0000
866.64,986.6000
866.88,965.2000
867.13,1009.6000
867.38,1011.0000
867.63,971.2000
867.87,986.2000
868.12,1006.8000
868.37,1013.6000
868.62,973.2000
868.86,987.0000
869.11,969.8000
869.36,1004.0000
869.61,997.6000
869.85,997.8000
870.10,1024.0000
870.35,1003.0000
870.60,990.6000
870.84,991.0000
871.09,993.0000
871.34,990.6000
871.59,986.8000
871.83,1003.2000
872.08,1003.4000
872.33,958.8000
872.57,993.4000
872.82,999.4000
873.07,997.0000
873.32,1007.6000
873.56,1001.6000
873.81,1001.8000
874.06,996.8000
874.30,978.8000
874.55,1002.8000
874.80,986.6000
875.04,1002.0000
875.29,991.0000
875.54,991.8000
875.78,981.2000
876.03,993.4000
876.28,989.2000
876.52,967.4000
876.77,983.8000
877.02,1004.4000
877.26,981.2000
877.51,978.2000
877.76,1006.2000
878.00,989.6000
878.25,1003.0000
878.50,1011.6000
878.74,994.8000
878.99,1005.2000
879.23,981.0000
879.48,975.4000
879.73,993.8000
879.97,1000.0000
880.22,981.2000
880.47,983.0000
880.71,980.8000
880.96,1025.0000
881.20,983.8000
881.45,984.6000
881.70,994.8000
881.94,989.2000
882.19,977.0000
882.43,1009.4000
882.68,990.4000
882.92,1018.2000
883.17,990.8000
883.42,1004.2000
883.66,990.2000
883.91,981.2000
884.15,980.2000
884.40,998.0000
884.64,982.8000
884.89,1002.4000
885.14,995.2000
885.38,1000.4000
885.63,996.0000
885.87,988.6000
886.12,996.6000
886.36,994.4000
886.61,987.0000
886.85,996.0000
887.10,991.2000
887.34,998.0000
887.59,995.0000
887.83,978.8000
888.08,1000.2000
888.32,966.2000
888.57,1007.2000
888.81,993.2000
889.06,1003.0000
889.30,979.0000
889.55,992.6000
889.79,988.8000
890.04,989.8000
890.28,984.4000
890.53,1001.8000
890.77,1025.0000
891.02,991.0000
891.26,996.0000
891.51,988.0000
891.75,1003.0000
892.00,988.2000
892.24,984.4000
892.49,989.0000
892.73,1007.2000
892.98,1003.6000
893.22,988.2000
893.47,967.2000
893.71,1007.8000
893.95,999.4000
894.20,983.2000
894.44,979.4000
894.69,1022.8000
894.93,1041.2000
895.18,992.4000
895.42,1008.6000
895.66,990.0000
895.91,987.2000
896.15,969.4000
896.40,1007.6000
896.64,1016.0000
896.88,993.2000
897.13,1013.4000
897.37,996.0000
897.62,1000.6000
897.86,1001.8000
898.10,980.0000
898.35,991.8000
898.59,994.6000
898.84,1004.6000
899.08,1008.0000
899.32,996.6000
899.57,1003.8000
899.81,976.6000
900.05,973.2000
900.30,999.4000
900.54,991.2000
900.78,1031.2000
901.03,1019.0000
901.27,987.0000
901.52,992.2000
901.76,993.4000
902.00,998.2000
902.25,979.2000
902.49,994.8000
902.73,1011.0000
902.98,980.0000
903.22,993.8000
903.46,987.0000
903.70,988.2000
903.95,998.6000
904.19,1014.0000
904.43,1010.0000
904.68,989.4000
904.92,982.6000
905.16,980.0000
905.41,1008.8000
905.65,981.0000
905.89,981.6000
906.13,1034.6000
906.38,984.6000
906.62,1000.8000
906.86,978.8000
907.11,981.4000
907.35,982.2000
907.59,1020.0000
907.83,1021.2000
908.08,995.0000
908.32,979.0000
908.56,1006.4000
908.80,1007.0000
909.05,1014.0000
909.29,993.8000
909.53,994.8000
909.77,990.4000
910.02,982.6000
910.26,1026.0000
910.50,999.4000
910.74,990.4000
910.98,1000.6000
911.23,1013.0000
911.47,991.2000
911.71,999.4000
911.95,981.8000
912.20,1002.4000
912.44,979.8000
912.68,992.0000
912.92,997.0000
913.16,1003.6000
913.41,972.6000
913.65,1004.0000
913.89,1004.6000
914.13,997.4000
914.37,984.0000
914.61,1020.8000
914.86,983.6000
915.10,986.6000
915.34,1006.2000
915.58,984.2000
915.82,968.8000
916.06,982.8000
916.31,998.4000
916.55,997.8000
916.79,1003.8000
917.03,1001.8000
917.27,975.4000
917.51,1010.6000
917.75,993.8000
918.00,989.2000
918.24,1010.0000
918.48,1011.2000
918.72,1038.8000
918.96,992.4000
919.20,1017.2000
919.44,1037.4000
919.68,1049.4000
919.92,1009.6000
920.17,1012.4000
920.41,983.6000
920.65,994.0000
920.89,986.0000
921.13,994.0000
921.37,1006.0000
921.61,967.2000
921.85,990.0000
922.09,994.8000
922.33,1018.8000
922.57,1007.4000
922.81,975.8000
923.05,1003.0000
923.30,978.4000
923.54,997.2000
923.78,977.2000
924.02,1010.6000
924.26,992.6000
924.50,987.8000
924.74,1000.0000
924.98,977.6000
925.22,1008.2000
925.46,988.0000
925.70,1005.2000
925.94,1031.4000
926.18,986.6000
926.42,992.6000
926.66,1010.6000
926.90,987.4000
927.14,976.6000
927.38,998.6000
927.62,976.6000
927.86,1030.0000
928.10,1028.8000
928.34,976.4000
928.58,985.2000
928.82,989.2000
929.06,998.0000
929.30,1029.2000
929.54,1003.6000
929.78,982.0000
930.02,972.8000
930.26,994.0000
930.50,987.0000
930.74,998.2000
930.98,993.8000
931.22,995.8000
931.46,985.2000
931.70,991.6000
931.94,1003.4000
932.17,996.6000
932.41,1003.0000
932.65,992.6000
932.89,975.4000
933.13,992.8000
933.37,993.2000
933.61,965.6000
933.85,985.4000
934.09,985.0000
934.33,975.0000
934.57,961.0000
934.81,984.2000
935.05,997.8000
935.28,999.4000
935.52,980.2000
935.76,973.6000
936.00,990.0000
936.24,1002.0000
936.48,987.4000
936.72,989.6000
936.96,996.8000
937.19,987.0000
937.43,1013.2000
937.67,982.4000
937.91,985.0000
938.15,979.4000
938.39,987.6000
938.63,978.0000
938.86,987.2000
939.10,990.4000
939.34,980.8000
939.58,965.6000
939.82,987.0000
940.06,991.0000
940.30,974.6000
940.53,973.8000
940.77,978.6000
941.01,982.0000
941.25,961.6000
