Wavelength (nm),Intensity
394.27,1020.4000
394.56,999.0000
394.85,1019.2000
395.14,999.4000
395.44,1003.6000
395.73,1005.2000
396.02,989.0000
396.31,1002.2000
396.61,1012.2000
396.90,997.4000
397.19,1006.6000
397.48,1006.6000
397.77,992.8000
398.06,1010.6000
398.36,1004.8000
398.65,996.4000
398.94,990.8000
399.23,985.0000
399.52,985.0000
399.82,1004.8000
400.11,995.4000
400.40,999.6000
400.69,991.0000
400.98,984.6000
401.27,1023.0000
401.57,972.0000
401.86,1008.4000
402.15,987.4000
402.44,998.6000
402.73,992.0000
403.02,1013.6000
403.32,1000.2000
403.61,985.8000
403.90,986.2000
404.19,1008.4000
404.48,1008.6000
404.77,1010.0000
405.06,1011.8000
405.36,1017.6000
405.65,998.8000
405.94,977.2000
406.23,1015.0000
406.52,1015.0000
406.81,1025.6000
407.10,994.0000
407.40,1007.4000
407.69,1001.6000
407.98,1011.6000
408.27,991.6000
408.56,985.8000
408.85,1035.2000
409.14,1001.0000
409.43,1006.0000
409.72,992.6000
410.02,1034.4000
410.31,996.8000
410.60,1005.2000
410.89,1019.0000
411.18,1001.2000
411.47,1000.0000
411.76,1000.8000
412.05,1003.8000
412.34,1006.0000
412.63,996.4000
412.93,1042.8000
413.22,1022.2000
413.51,992.8000
413.80,1011.4000
414.09,981.8000
414.38,985.4000
414.67,1020.0000
414.96,982.8000
415.25,1037.8000
415.54,1011.2000
415.83,974.4000
416.12,985.6000
416.41,973.6000
416.70,1012.2000
417.00,1010.0000
417.29,1001.2000
417.58,997.8000
417.87,1001.0000
418.16,1004.0000
418.45,994.0000
418.74,992.2000
419.03,986.2000
419.32,1031.6000
419.61,1002.8000
419.90,1021.8000
420.19,1016.8000
420.48,1001.8000
420.77,984.4000
421.06,989.2000
421.35,993.6000
421.64,993.8000
421.93,980.6000
422.22,1001.8000
422.51,1020.4000
422.80,1001.4000
423.09,989.2000
423.38,1030.6000
423.67,1005.0000
423.96,994.2000
424.25,989.6000
424.54,985.4000
424.83,972.0000
425.12,994.2000
425.41,990.8000
425.70,1055.4000
425.99,1006.0000
426.28,1017.0000
426.57,1003.4000
426.86,994.4000
427.15,1008.0000
427.44,1025.8000
427.73,1013.2000
428.02,998.4000
428.31,1013.2000
428.60,1018.0000
428.89,1000.0000
429.18,1002.6000
429.47,1012.0000
429.76,992.8000
430.05,999.4000
430.34,1018.0000
430.63,1000.4000
430.92,1022.6000
431.21,1014.0000
431.50,996.8000
431.79,996.8000
432.08,986.0000
432.37,989.6000
432.66,985.2000
432.94,989.8000
433.23,1016.6000
433.52,1014.4000
433.81,1000.6000
434.10,1052.2000
434.39,1001.4000
434.68,1018.4000
434.97,981.4000
435.26,981.8000
435.55,1007.6000
435.84,1000.6000
436.13,991.8000
436.42,1000.2000
436.71,997.4000
436.99,981.8000
437.28,996.2000
437.57,1006.2000
437.86,988.2000
438.15,1005.2000
438.44,997.0000
438.73,1010.2000
439.02,1010.6000
439.31,1022.8000
439.60,986.8000
439.88,998.6000
440.17,998.2000
440.46,1005.0000
440.75,980.0000
441.04,976.8000
441.33,1022.6000
441.62,994.6000
441.91,988.6000
442.20,989.4000
442.48,990.6000
442.77,990.8000
443.06,999.0000
443.35,979.4000
443.64,998.2000
443.93,982.2000
444.22,994.2000
444.50,1012.0000
444.79,1001.0000
445.08,1016.6000
445.37,1001.2000
445.66,988.0000
445.95,975.6000
446.24,981.4000
446.52,987.2000
446.81,1021.2000
447.10,981.2000
447.39,1004.0000
447.68,990.2000
447.97,967.2000
448.25,1030.4000
448.54,1017.8000
448.83,1013.4000
449.12,1036.4000
449.41,992.6000
449.69,1009.0000
449.98,992.4000
450.27,984.2000
450.56,992.2000
450.85,1003.2000
451.14,976.6000
451.42,999.4000
451.71,1005.8000
452.00,998.0000
452.29,1002.8000
452.58,1000.4000
452.86,998.6000
453.15,996.2000
453.44,996.4000
453.73,1012.2000
454.01,988.0000
454.30,1050.6000
454.59,985.4000
454.88,978.6000
455.17,982.4000
455.45,990.6000
455.74,1021.0000
456.03,986.6000
456.32,991.0000
456.60,997.0000
456.89,1003.4000
457.18,992.6000
457.47,977.8000
457.76,997.8000
458.04,994.0000
458.33,994.4000
458.62,992.8000
458.91,979.2000
459.19,971.2000
459.48,977.6000
459.77,979.4000
460.06,1002.2000
460.34,992.8000
460.63,994.4000
460.92,989.8000
461.20,998.8000
461.49,998.0000
461.78,978.6000
462.07,988.2000
462.35,989.6000
462.64,986.6000
462.93,1002.6000
463.22,1014.6000
463.50,1013.8000
463.79,998.6000
464.08,1005.8000
464.36,1000.0000
464.65,998.4000
464.94,991.6000
465.22,1002.6000
465.51,998.2000
465.80,1025.0000
466.09,983.2000
466.37,1009.2000
466.66,1012.6000
466.95,990.4000
467.23,995.4000
467.52,997.8000
467.81,1030.6000
468.09,992.2000
468.38,1001.2000
468.67,1024.2000
468.95,995.0000
469.24,981.4000
469.53,1002.8000
469.81,1010.6000
470.10,1000.6000
470.39,1009.4000
470.67,981.6000
470.96,1004.4000
471.25,1000.8000
471.53,1017.2000
471.82,993.6000
472.11,1000.8000
472.39,993.2000
472.68,988.0000
472.97,985.0000
473.25,997.0000
473.54,989.6000
473.82,999.0000
474.11,1006.0000
474.40,1003.4000
474.68,1022.0000
474.97,1017.0000
475.26,998.2000
475.54,984.4000
475.83,991.6000
476.11,994.2000
476.40,1011.8000
476.69,1002.8000
476.97,1014.4000
477.26,996.0000
477.55,1021.2000
477.83,973.4000
478.12,993.4000
478.40,998.2000
478.69,989.0000
478.98,990.2000
479.26,982.4000
479.55,991.6000
479.83,1000.6000
480.12,1004.6000
480.40,999.6000
480.69,1000.4000
480.98,994.4000
481.26,1006.8000
481.55,982.6000
481.83,1003.0000
482.12,987.6000
482.41,997.8000
482.69,975.6000
482.98,1003.8000
483.26,1018.8000
483.55,991.2000
483.83,993.4000
484.12,997.2000
484.40,997.2000
484.69,978.0000
484.98,1000.2000
485.26,997.4000
485.55,996.0000
485.83,966.4000
486.12,1001.4000
486.40,1003.2000
486.69,998.6000
486.97,990.8000
487.26,1000.8000
487.54,991.4000
487.83,989.2000
488.11,992.4000
488.40,1021.4000
488.68,1022.2000
488.97,1002.8000
489.26,1004.0000
489.54,993.6000
489.83,1003.8000
490.11,988.6000
490.40,1005.0000
490.68,989.4000
490.97,968.4000
491.25,991.2000
491.54,979.6000
491.82,1004.2000
492.11,1006.0000
492.39,1007.0000
492.68,991.0000
492.96,1012.4000
493.24,990.0000
493.53,990.2000
493.81,1014.6000
494.10,978.2000
494.38,974.6000
494.67,977.8000
494.95,1000.4000
495.24,981.0000
495.52,1005.6000
495.81,1012.4000
496.09,1008.4000
496.38,975.6000
496.66,1011.6000
496.95,1011.0000
497.23,998.8000
497.51,984.8000
497.80,1001.6000
498.08,994.4000
498.37,985.8000
498.65,997.2000
498.94,1017.0000
499.22,991.0000
499.51,992.4000
499.79,1001.4000
500.07,977.2000
500.36,1007.6000
500.64,1005.8000
500.93,989.8000
501.21,1009.2000
501.50,994.6000
501.78,992.0000
502.06,976.2000
502.35,979.2000
502.63,974.2000
502.92,997.8000
503.20,1005.2000
503.48,1022.6000
503.77,995.8000
504.05,992.8000
504.34,981.8000
504.62,1003.2000
504.90,1019.8000
505.19,1012.4000
505.47,984.6000
505.76,998.2000
506.04,981.8000
506.32,1004.8000
506.61,984.6000
506.89,1012.6000
507.17,994.8000
507.46,995.8000
507.74,1013.0000
508.03,1000.4000
508.31,1007.6000
508.59,974.0000
508.88,986.4000
509.16,1025.4000
509.44,998.2000
509.73,1015.0000
510.01,1003.8000
510.29,1004.6000
510.58,974.6000
510.86,989.2000
511.14,1006.0000
511.43,1000.8000
511.71,1010.0000
511.99,1001.0000
512.28,984.8000
512.56,982.8000
512.84,987.8000
513.13,970.6000
513.41,996.2000
513.69,998.2000
513.98,967.8000
514.26,1009.4000
514.54,992.8000
514.83,999.2000
515.11,996.2000
515.39,995.2000
515.68,1008.4000
515.96,988.0000
516.24,986.6000
516.53,994.2000
516.81,1014.6000
517.09,982.0000
517.37,994.0000
517.66,986.4000
517.94,987.8000
518.22,1003.6000
518.51,987.8000
518.79,1003.4000
519.07,985.8000
519.35,988.8000
519.64,1004.8000
519.92,1011.0000
520.20,1004.6000
520.48,1001.0000
520.77,988.8000
521.05,988.4000
521.33,979.4000
521.62,980.6000
521.90,1000.6000
522.18,987.6000
522.46,997.2000
522.75,988.0000
523.03,998.0000
523.31,986.0000
523.59,1019.6000
523.88,1004.4000
524.16,982.4000
524.44,1009.4000
524.72,1016.8000
525.00,1006.2000
525.29,998.0000
525.57,982.4000
525.85,996.0000
526.13,979.4000
526.42,976.4000
526.70,990.4000
526.98,970.4000
527.26,990.0000
527.54,985.4000
527.83,993.6000
528.11,988.4000
528.39,1005.2000
528.67,992.4000
528.95,989.6000
529.24,969.4000
529.52,997.0000
529.80,1007.0000
530.08,1011.8000
530.36,983.0000
530.65,1007.6000
530.93,987.4000
531.21,988.4000
531.49,976.8000
531.77,998.6000
532.05,1000.4000
532.34,1006.8000
532.62,990.2000
532.90,1002.6000
533.18,1008.4000
533.46,992.2000
533.74,1000.0000
534.03,987.0000
534.31,985.0000
534.59,992.4000
534.87,1010.6000
535.15,1002.2000
535.43,998.8000
535.71,992.0000
536.00,996.8000
536.28,994.6000
536.56,998.6000
536.84,997.2000
537.12,981.8000
537.40,991.2000
537.68,1003.0000
537.97,1007.8000
538.25,987.4000
538.53,995.0000
538.81,1009.4000
539.09,972.0000
539.37,988.6000
539.65,996.6000
539.93,988.4000
540.21,987.2000
540.50,974.2000
540.78,1002.2000
541.06,980.2000
541.34,1007.8000
541.62,996.6000
541.90,1010.8000
542.18,986.8000
542.46,1000.8000
542.74,992.4000
543.02,991.4000
543.30,993.0000
543.58,1002.4000
543.87,1011.2000
544.15,984.2000
544.43,1007.2000
544.71,993.4000
544.99,996.2000
545.27,999.6000
545.55,977.8000
545.83,998.2000
546.11,995.0000
546.39,1001.6000
546.67,1005.4000
546.95,986.8000
547.23,983.6000
547.51,989.0000
547.79,1005.4000
548.07,997.2000
548.35,989.6000
548.63,967.2000
548.91,998.2000
549.20,980.0000
549.48,1024.0000
549.76,971.0000
550.04,979.6000
550.32,1009.8000
550.60,978.6000
550.88,974.0000
551.16,1004.6000
551.44,1003.4000
551.72,979.8000
552.00,988.2000
552.28,1010.4000
552.56,1015.2000
552.84,1009.8000
553.12,1006.0000
553.40,996.6000
553.68,999.0000
553.96,993.2000
554.24,986.6000
554.52,997.6000
554.80,990.4000
555.08,1010.8000
555.36,976.2000
555.64,1001.0000
555.92,997.4000
556.19,994.2000
556.47,990.8000
556.75,1006.2000
557.03,993.8000
557.31,1013.8000
557.59,1008.6000
557.87,984.8000
558.15,999.0000
558.43,985.2000
558.71,992.0000
558.99,992.6000
559.27,1005.4000
559.55,983.2000
559.83,988.6000
560.11,1002.6000
560.39,983.4000
560.67,992.8000
560.95,1008.2000
561.23,989.2000
561.50,996.4000
561.78,993.6000
562.06,990.8000
562.34,983.4000
562.62,1000.0000
562.90,1016.2000
563.18,1005.4000
563.46,984.0000
563.74,1002.6000
564.02,1018.0000
564.30,991.4000
564.57,995.2000
564.85,979.8000
565.13,1011.0000
565.41,990.0000
565.69,998.6000
565.97,1011.8000
566.25,984.2000
566.53,978.0000
566.81,1014.4000
567.08,1007.4000
567.36,981.6000
567.64,984.2000
567.92,1011.6000
568.20,982.2000
568.48,982.0000
568.76,994.2000
569.04,999.2000
569.31,1011.4000
569.59,1003.4000
569.87,1005.8000
570.15,978.4000
570.43,991.2000
570.71,1006.0000
570.99,994.8000
571.26,991.4000
571.54,1003.4000
571.82,983.8000
572.10,993.8000
572.38,987.6000
572.66,998.8000
572.93,994.4000
573.21,994.2000
573.49,993.8000
573.77,1020.4000
574.05,981.2000
574.32,984.8000
574.60,986.0000
574.88,999.2000
575.16,1020.4000
575.44,995.6000
575.71,994.6000
575.99,1041.6000
576.27,1012.4000
576.55,990.8000
576.83,1019.2000
577.10,1000.2000
577.38,1006.0000
577.66,984.0000
577.94,1001.2000
578.22,974.2000
578.49,1006.4000
578.77,987.2000
579.05,1006.8000
579.33,994.4000
579.60,995.2000
579.88,999.0000
580.16,989.2000
580.44,996.4000
580.72,978.2000
580.99,990.2000
581.27,987.4000
581.55,989.8000
581.83,991.6000
582.10,994.6000
582.38,994.6000
582.66,999.2000
582.94,997.8000
583.21,1005.2000
583.49,1007.0000
583.77,998.2000
584.04,1015.6000
584.32,998.0000
584.60,988.6000
584.88,982.2000
585.15,1017.2000
585.43,985.4000
585.71,993.4000
585.98,971.2000
586.26,982.2000
586.54,994.2000
586.82,988.2000
587.09,988.8000
587.37,1011.6000
587.65,979.8000
587.92,981.6000
588.20,998.2000
588.48,1028.2000
588.75,980.6000
589.03,971.0000
589.31,1001.6000
589.59,987.2000
589.86,1023.4000
590.14,989.0000
590.42,1002.0000
590.69,1005.0000
590.97,985.2000
591.25,979.8000
591.52,989.8000
591.80,1013.4000
592.08,995.8000
592.35,1008.2000
592.63,1003.4000
592.91,1014.4000
593.18,988.8000
593.46,985.2000
593.73,997.0000
594.01,1001.4000
594.29,1019.2000
594.56,985.4000
594.84,998.0000
595.12,1009.8000
595.39,994.4000
595.67,991.2000
595.95,983.0000
596.22,994.4000
596.50,980.2000
596.77,989.0000
597.05,1026.4000
597.33,1012.8000
597.60,996.6000
597.88,1001.2000
598.15,992.2000
598.43,979.8000
598.71,999.4000
598.98,1056.8000
599.26,1025.6000
599.53,982.8000
599.81,1009.2000
600.09,982.4000
600.36,976.6000
600.64,1000.2000
600.91,986.8000
601.19,982.0000
601.47,986.0000
601.74,974.2000
602.02,989.8000
602.29,995.8000
602.57,999.2000
602.84,987.0000
603.12,980.2000
603.40,994.4000
603.67,991.0000
603.95,1001.0000
604.22,1027.6000
604.50,996.2000
604.77,1005.6000
605.05,986.0000
605.32,994.8000
605.60,1004.8000
605.87,993.4000
606.15,991.0000
606.42,983.2000
606.70,990.4000
606.98,990.6000
607.25,989.6000
607.53,1011.2000
607.80,1003.2000
608.08,987.6000
608.35,985.6000
608.63,984.4000
608.90,1007.8000
609.18,992.2000
609.45,980.2000
609.73,1009.0000
610.00,1020.2000
610.28,1006.6000
610.55,988.6000
610.83,994.0000
611.10,997.4000
611.38,1004.0000
611.65,998.6000
611.93,990.0000
612.20,1008.0000
612.48,965.4000
612.75,993.6000
613.03,978.6000
613.30,987.0000
613.57,995.8000
613.85,987.2000
614.12,1008.6000
614.40,982.2000
614.67,981.8000
614.95,998.4000
615.22,1001.2000
615.50,973.2000
615.77,1008.6000
616.05,991.0000
616.32,996.2000
616.59,991.0000
616.87,1000.8000
617.14,999.8000
617.42,1004.0000
617.69,999.6000
617.97,976.8000
618.24,989.4000
618.51,970.6000
618.79,989.8000
619.06,981.6000
619.34,994.2000
619.61,979.6000
619.88,1030.0000
620.16,991.8000
620.43,1015.0000
620.71,979.6000
620.98,989.2000
621.26,1002.0000
621.53,994.4000
621.80,1010.4000
622.08,997.6000
622.35,979.2000
622.62,1007.0000
622.90,1012.4000
623.17,995.8000
623.45,1016.4000
623.72,1003.4000
623.99,986.4000
624.27,998.0000
624.54,1021.6000
624.81,1026.8000
625.09,1001.2000
625.36,993.0000
625.64,1005.2000
625.91,1009.4000
626.18,989.8000
626.46,993.6000
626.73,1030.6000
627.00,1011.2000
627.28,983.6000
627.55,991.0000
627.82,984.6000
628.10,1001.0000
628.37,981.8000
628.64,982.4000
628.92,979.8000
629.19,984.0000
629.46,986.8000
629.74,981.2000
630.01,1000.0000
630.28,995.8000
630.56,986.4000
630.83,970.2000
631.10,985.0000
631.37,996.8000
631.65,981.4000
631.92,976.8000
632.19,993.0000
632.47,1009.4000
632.74,993.0000
633.01,1012.4000
633.28,989.4000
633.56,1001.4000
633.83,974.8000
634.10,977.2000
634.38,979.0000
634.65,985.6000
634.92,990.2000
635.19,1027.2000
635.47,994.6000
635.74,972.4000
636.01,971.4000
636.28,974.4000
636.56,987.8000
636.83,978.0000
637.10,1013.4000
637.37,1005.0000
637.65,999.8000
637.92,986.8000
638.19,963.2000
638.46,1016.2000
638.74,988.4000
639.01,1022.0000
639.28,980.6000
639.55,1005.4000
639.83,979.8000
640.10,985.2000
640.37,1005.4000
640.64,990.2000
640.91,1010.0000
641.19,996.8000
641.46,996.4000
641.73,1020.4000
642.00,990.0000
642.28,1005.6000
642.55,989.2000
642.82,1004.0000
643.09,1007.6000
643.36,990.6000
643.63,998.0000
643.91,1006.4000
644.18,997.6000
644.45,991.8000
644.72,1007.4000
644.99,987.4000
645.27,979.4000
645.54,1000.8000
645.81,1034.0000
646.08,1010.0000
646.35,979.4000
646.62,998.6000
646.90,990.6000
647.17,1016.8000
647.44,990.0000
647.71,1004.6000
647.98,988.2000
648.25,999.4000
648.52,969.0000
648.80,987.4000
649.07,970.6000
649.34,976.8000
649.61,989.0000
649.88,1022.6000
650.15,1001.6000
650.42,993.2000
650.69,990.8000
650.97,1002.0000
651.24,999.8000
651.51,1003.2000
651.78,1001.2000
652.05,980.4000
652.32,995.6000
652.59,1026.0000
652.86,991.6000
653.13,972.8000
653.41,1000.8000
653.68,999.4000
653.95,1006.0000
654.22,994.4000
654.49,992.2000
654.76,978.2000
655.03,1007.8000
655.30,986.0000
655.57,978.2000
655.84,1015.8000
656.11,1013.8000
656.38,1000.8000
656.66,985.6000
656.93,988.2000
657.20,992.0000
657.47,1028.2000
657.74,996.6000
658.01,1005.2000
658.28,982.2000
658.55,988.2000
658.82,991.0000
659.09,1024.2000
659.36,995.8000
659.63,982.8000
659.90,999.8000
660.17,1012.2000
660.44,979.8000
660.71,986.8000
660.98,1004.8000
661.25,994.4000
661.52,983.8000
661.79,982.6000
662.06,998.0000
662.33,986.4000
662.60,984.0000
662.87,1014.2000
663.14,986.6000
663.41,995.6000
663.68,969.0000
663.95,971.4000
664.22,1003.4000
664.49,998.6000
664.76,977.2000
665.03,969.0000
665.30,996.2000
665.57,994.0000
665.84,977.4000
666.11,980.2000
666.38,979.6000
666.65,987.2000
666.92,1032.4000
667.19,987.2000
667.46,992.8000
667.73,1004.4000
668.00,992.2000
668.27,993.6000
668.54,1007.2000
668.81,982.8000
669.08,998.4000
669.35,998.6000
669.62,1020.6000
669.89,985.8000
670.16,1008.0000
670.42,989.0000
670.69,1000.4000
670.96,986.6000
671.23,990.2000
671.50,978.2000
671.77,983.0000
672.04,992.6000
672.31,980.6000
672.58,969.2000
672.85,988.0000
673.12,986.6000
673.39,993.4000
673.65,969.8000
673.92,1008.8000
674.19,989.0000
674.46,996.6000
674.73,999.2000
675.00,979.4000
675.27,995.2000
675.54,998.8000
675.81,985.6000
676.07,992.8000
676.34,1027.0000
676.61,1007.6000
676.88,980.4000
677.15,989.4000
677.42,1000.4000
677.69,991.4000
677.96,999.0000
678.22,991.8000
678.49,987.2000
678.76,988.0000
679.03,989.8000
679.30,983.2000
679.57,976.0000
679.83,1005.2000
680.10,996.6000
680.37,999.0000
680.64,1004.2000
680.91,971.0000
681.18,995.2000
681.44,979.8000
681.71,984.4000
681.98,1008.2000
682.25,1001.2000
682.52,1001.8000
682.79,1007.0000
683.05,1015.0000
683.32,990.6000
683.59,1001.6000
683.86,998.6000
684.13,1010.8000
684.39,980.8000
684.66,989.2000
684.93,1000.2000
685.20,994.6000
685.47,980.2000
685.73,1006.4000
686.00,975.6000
686.27,995.2000
686.54,992.4000
686.80,1003.4000
687.07,1017.6000
687.34,974.2000
687.61,992.4000
687.88,979.2000
688.14,983.6000
688.41,1008.0000
688.68,976.6000
688.95,976.0000
689.21,993.0000
689.48,1018.4000
689.75,998.6000
690.02,970.8000
690.28,976.6000
690.55,1000.8000
690.82,980.0000
691.08,996.4000
691.35,982.8000
691.62,990.8000
691.89,998.0000
692.15,1002.0000
692.42,1000.6000
692.69,974.4000
692.95,977.4000
693.22,1006.8000
693.49,1002.0000
693.76,996.6000
694.02,989.6000
694.29,1002.6000
694.56,989.6000
694.82,1002.6000
695.09,980.0000
695.36,984.0000
695.62,986.8000
695.89,1007.2000
696.16,983.6000
696.43,1003.2000
696.69,1023.8000
696.96,1028.4000
697.23,978.2000
697.49,996.2000
697.76,1013.4000
698.03,982.6000
698.29,986.4000
698.56,990.6000
698.82,988.0000
699.09,1014.8000
699.36,1001.0000
699.62,998.2000
699.89,995.8000
700.16,969.6000
700.42,991.2000
700.69,1002.4000
700.96,1004.4000
701.22,999.0000
701.49,986.0000
701.75,1010.2000
702.02,995.4000
702.29,997.8000
702.55,989.6000
702.82,1001.0000
703.09,998.8000
703.35,1013.0000
703.62,1008.0000
703.88,1007.0000
704.15,976.4000
704.42,986.6000
704.68,978.8000
704.95,1020.6000
705.21,983.4000
705.48,1006.0000
705.75,979.6000
706.01,993.2000
706.28,973.6000
706.54,986.8000
706.81,1003.4000
707.07,1001.6000
707.34,967.0000
707.61,1007.6000
707.87,1006.6000
708.14,993.2000
708.40,995.2000
708.67,990.6000
708.93,1000.4000
709.20,993.2000
709.46,996.4000
709.73,1000.0000
709.99,999.6000
710.26,987.6000
710.53,976.4000
710.79,962.4000
711.06,1001.4000
711.32,1148.6000
711.59,1017.6000
711.85,1014.4000
712.12,1000.6000
712.38,967.4000
712.65,998.4000
712.91,987.8000
713.18,993.6000
713.44,997.6000
713.71,982.8000
713.97,1012.4000
714.24,989.8000
714.50,981.0000
714.77,1003.4000
715.03,994.6000
715.30,1006.8000
715.56,991.8000
715.83,980.6000
716.09,1013.4000
716.36,1028.6000
716.62,990.2000
716.89,969.2000
717.15,1018.4000
717.42,984.2000
717.68,975.2000
717.94,983.4000
718.21,992.4000
718.47,1015.8000
718.74,980.2000
719.00,1010.8000
719.27,996.6000
719.53,979.2000
719.80,1001.0000
720.06,995.6000
720.32,1023.6000
720.59,997.2000
720.85,1005.4000
721.12,981.6000
721.38,999.4000
721.65,979.4000
721.91,993.6000
722.17,983.4000
722.44,996.6000
722.70,995.6000
722.97,1004.8000
723.23,990.6000
723.49,986.6000
723.76,979.2000
724.02,1021.2000
724.29,1002.4000
724.55,986.6000
724.81,1007.4000
725.08,999.0000
725.34,1007.2000
725.61,983.2000
725.87,998.8000
726.13,995.4000
726.40,1014.4000
726.66,990.0000
726.92,993.0000
727.19,998.8000
727.45,991.4000
727.71,997.0000
727.98,991.4000
728.24,1008.6000
728.51,997.8000
728.77,982.0000
729.03,1008.2000
729.30,1001.6000
729.56,995.0000
729.82,1015.6000
730.09,990.0000
730.35,974.4000
730.61,1005.2000
730.88,988.8000
731.14,985.6000
731.40,1000.8000
731.67,985.2000
731.93,996.4000
732.19,999.4000
732.45,1005.4000
732.72,975.4000
732.98,1004.2000
733.24,982.4000
733.51,992.2000
733.77,978.0000
734.03,989.4000
734.30,991.8000
734.56,1006.0000
734.82,970.2000
735.08,1005.6000
735.35,992.4000
735.61,998.4000
735.87,997.0000
736.14,1017.2000
736.40,1005.0000
736.66,994.2000
736.92,1003.4000
737.19,1002.6000
737.45,1003.4000
737.71,995.0000
737.97,997.6000
738.24,998.8000
738.50,989.2000
738.76,1016.6000
739.02,982.4000
739.29,1006.2000
739.55,1010.0000
739.81,995.6000
740.07,999.0000
740.33,1004.6000
740.60,993.0000
740.86,1010.8000
741.12,990.6000
741.38,996.8000
741.65,997.6000
741.91,971.4000
742.17,1007.6000
742.43,983.8000
742.69,992.8000
742.96,1021.4000
743.22,997.4000
743.48,1012.2000
743.74,1009.2000
744.00,990.4000
744.26,1001.2000
744.53,989.6000
744.79,983.8000
745.05,985.2000
745.31,976.4000
745.57,1013.8000
745.84,1003.0000
746.10,978.8000
746.36,975.2000
746.62,989.2000
746.88,994.6000
747.14,1006.8000
747.40,993.0000
747.67,982.6000
747.93,999.0000
748.19,989.6000
748.45,996.4000
748.71,995.6000
748.97,1011.4000
749.23,999.6000
749.50,1012.0000
749.76,988.8000
750.02,984.4000
750.28,1009.0000
750.54,978.4000
750.80,1004.6000
751.06,976.6000
751.32,992.6000
751.59,1000.8000
751.85,989.8000
752.11,1014.0000
752.37,1024.4000
752.63,996.8000
752.89,1012.6000
753.15,1027.6000
753.41,976.6000
753.67,1000.8000
753.93,999.2000
754.19,980.4000
754.46,1022.8000
754.72,987.6000
754.98,983.4000
755.24,1008.6000
755.50,982.4000
755.76,993.0000
756.02,1010.0000
756.28,980.2000
756.54,1002.8000
756.80,1017.8000
757.06,1006.8000
757.32,974.0000
757.58,984.6000
757.84,1023.6000
758.10,977.4000
758.36,977.2000
758.62,976.8000
758.88,993.4000
759.14,1014.4000
759.40,994.8000
759.66,983.0000
759.92,1012.0000
760.18,981.0000
760.44,997.8000
760.70,999.2000
760.96,1004.4000
761.22,995.0000
761.48,991.0000
761.74,1005.2000
762.00,998.0000
762.26,1005.2000
762.52,994.0000
762.78,1002.4000
763.04,999.4000
763.30,1017.0000
763.56,977.0000
763.82,984.0000
764.08,1009.6000
764.34,1006.2000
764.60,1006.6000
764.86,999.4000
765.12,981.0000
765.38,995.0000
765.64,1009.0000
765.90,1025.2000
766.16,982.2000
766.42,990.6000
766.68,981.6000
766.94,983.4000
767.20,993.2000
767.46,992.2000
767.72,985.2000
767.98,1005.2000
768.23,995.8000
768.49,999.8000
768.75,1012.0000
769.01,1021.6000
769.27,985.6000
769.53,1004.4000
769.79,1003.2000
770.05,984.2000
770.31,979.6000
770.57,1017.2000
770.83,988.6000
771.08,1004.2000
771.34,991.4000
771.60,1002.0000
771.86,989.4000
772.12,977.0000
772.38,999.4000
772.64,993.4000
772.90,988.8000
773.16,999.6000
773.41,998.8000
773.67,977.4000
773.93,993.8000
774.19,996.4000
774.45,1011.0000
774.71,1011.6000
774.97,987.6000
775.22,995.8000
775.48,1003.8000
775.74,970.8000
776.00,1005.8000
776.26,988.6000
776.52,973.8000
776.77,990.8000
777.03,1002.4000
777.29,982.4000
777.55,977.8000
777.81,985.0000
778.07,982.0000
778.32,994.2000
778.58,981.2000
778.84,981.6000
779.10,992.4000
779.36,1000.8000
779.61,997.6000
779.87,1006.2000
780.13,984.2000
780.39,999.2000
780.65,984.2000
780.90,988.2000
781.16,1001.2000
781.42,974.6000
781.68,987.0000
781.94,992.6000
782.19,995.2000
782.45,996.8000
782.71,988.8000
782.97,1011.6000
783.22,1006.4000
783.48,982.8000
783.74,987.4000
784.00,997.0000
784.25,998.8000
784.51,984.6000
784.77,1015.2000
785.03,1003.4000
785.28,992.2000
785.54,980.8000
785.80,996.0000
786.06,989.8000
786.31,997.4000
786.57,993.8000
786.83,997.8000
787.08,1007.8000
787.34,987.8000
787.60,1008.0000
787.86,989.2000
788.11,1002.4000
788.37,991.6000
788.63,1000.2000
788.88,1016.6000
789.14,998.2000
789.40,989.2000
789.65,1007.2000
789.91,1016.2000
790.17,988.6000
790.42,982.4000
790.68,999.6000
790.94,980.6000
791.20,1021.0000
791.45,1016.4000
791.71,996.2000
791.97,980.8000
792.22,1010.0000
792.48,995.8000
792.73,970.2000
792.99,998.2000
793.25,971.6000
793.50,994.8000
793.76,998.0000
794.02,967.4000
794.27,989.6000
794.53,1008.4000
794.79,997.6000
795.04,1003.6000
795.30,996.8000
795.55,992.6000
795.81,968.4000
796.07,1001.8000
796.32,1004.8000
796.58,989.0000
796.84,991.6000
797.09,1002.2000
797.35,999.4000
797.60,998.0000
797.86,990.2000
798.12,1012.6000
798.37,993.6000
798.63,990.0000
798.88,979.6000
799.14,988.8000
799.39,990.4000
799.65,1010.4000
799.91,973.8000
800.16,1001.0000
800.42,989.2000
800.67,1003.8000
800.93,996.6000
801.18,971.6000
801.44,997.4000
801.70,999.2000
801.95,1000.0000
802.21,1000.4000
802.46,983.2000
802.72,984.8000
802.97,1005.4000
803.23,1000.6000
803.48,1004.2000
803.74,980.2000
803.99,974.6000
804.25,988.0000
804.50,1021.2000
804.76,988.2000
805.02,981.8000
805.27,1005.8000
805.53,1018.8000
805.78,970.8000
806.04,1011.0000
806.29,973.0000
806.55,1007.8000
806.80,985.8000
807.06,1034.2000
807.31,978.8000
807.56,984.6000
807.82,1005.2000
808.07,1005.8000
808.33,989.0000
808.58,988.4000
808.84,994.8000
809.09,983.2000
809.35,1017.4000
809.60,983.0000
809.86,996.4000
810.11,1012.8000
810.37,997.8000
810.62,972.0000
810.88,992.4000
811.13,1002.0000
811.38,987.6000
811.64,991.8000
811.89,1009.2000
812.15,993.2000
812.40,988.6000
812.66,1001.8000
812.91,995.6000
813.16,983.0000
813.42,1000.8000
813.67,1002.8000
813.93,991.8000
814.18,998.6000
814.44,1018.4000
814.69,1006.4000
814.94,993.2000
815.20,979.2000
815.45,974.2000
815.71,996.0000
815.96,969.0000
816.21,983.0000
816.47,1001.4000
816.72,990.8000
816.97,983.8000
817.23,972.8000
817.48,974.6000
817.74,994.2000
817.99,985.4000
818.24,1027.2000
818.50,998.6000
818.75,1018.6000
819.00,982.8000
819.26,1013.4000
819.51,1033.8000
819.76,981.2000
820.02,986.2000
820.27,983.6000
820.52,978.4000
820.78,972.2000
821.03,1008.8000
821.28,991.0000
821.54,1005.2000
821.79,985.8000
822.04,982.0000
822.30,981.6000
822.55,1012.6000
822.80,998.4000
823.06,982.8000
823.31,979.4000
823.56,992.0000
823.82,999.2000
824.07,995.4000
824.32,987.4000
824.57,989.4000
824.83,1001.8000
825.08,1014.6000
825.33,992.2000
825.59,980.6000
825.84,991.6000
826.09,991.8000
826.34,983.8000
826.60,992.6000
826.85,998.8000
827.10,982.8000
827.35,1005.6000
827.61,975.2000
827.86,999.8000
828.11,993.4000
828.36,972.6000
828.62,992.6000
828.87,1012.2000
829.12,985.4000
829.37,997.8000
829.63,991.4000
829.88,1001.2000
830.13,1009.6000
830.38,999.8000
830.63,973.8000
830.89,977.8000
831.14,999.0000
831.39,994.8000
831.64,992.6000
831.89,1002.2000
832.15,970.8000
832.40,996.4000
832.65,1010.0000
832.90,988.0000
833.15,989.8000
833.41,1004.0000
833.66,1038.4000
833.91,1007.2000
834.16,994.2000
834.41,1015.8000
834.67,975.4000
834.92,998.6000
835.17,987.0000
835.42,999.6000
835.67,989.2000
835.92,989.8000
836.17,983.2000
836.43,994.8000
836.68,1005.4000
836.93,982.4000
837.18,990.6000
837.43,978.2000
837.68,991.4000
837.93,971.2000
838.19,987.2000
838.44,983.0000
838.69,1004.0000
838.94,976.2000
839.19,975.4000
839.44,986.0000
839.69,998.4000
839.94,978.0000
840.20,1000.4000
840.45,1020.6000
840.70,1023.4000
840.95,994.8000
841.20,985.6000
841.45,989.8000
841.70,995.4000
841.95,997.8000
842.20,986.6000
842.45,1030.2000
842.70,1011.2000
842.95,981.4000
843.21,993.6000
843.46,994.0000
843.71,998.0000
843.96,1014.6000
844.21,985.4000
844.46,975.2000
844.71,989.4000
844.96,1024.2000
845.21,980.8000
845.46,979.6000
845.71,1003.0000
845.96,981.2000
846.21,989.6000
846.46,995.4000
846.71,982.4000
846.96,966.6000
847.21,996.8000
847.46,1002.8000
847.71,999.8000
847.96,990.2000
848.21,980.4000
848.46,991.4000
848.71,1002.0000
848.96,1002.2000
849.21,1001.6000
849.46,978.4000
849.71,1002.8000
849.96,985.8000
850.21,981.4000
850.46,993.8000
850.71,987.8000
850.96,959.2000
851.21,977.0000
851.46,979.8000
851.71,976.2000
851.96,975.0000
852.21,969.0000
852.46,979.2000
852.71,989.2000
852.96,987.0000
853.21,990.6000
853.46,1001.2000
853.71,1004.2000
853.96,978.6000
854.21,989.2000
854.46,1030.0000
854.70,984.4000
854.95,989.8000
855.20,987.6000
855.45,1004.8000
855.70,996.0000
855.95,987.2000
856.20,1002.6000
856.45,982.0000
856.70,994.2000
856.95,1003.0000
857.20,987.6000
857.44,1013.4000
857.69,977.8000
857.94,991.2000
858.19,1001.6000
858.44,982.6000
858.69,989.6000
858.94,1011.8000
859.19,986.6000
859.44,987.0000
859.68,997.8000
859.93,988.8000
860.18,971.2000
860.43,990.0000
860.68,1026.6000
860.93,1001.4000
861.18,999.6000
861.42,1009.4000
861.67,1003.2000
861.92,997.4000
862.17,998.8000
862.42,1005.4000
862.67,993.0000
862.91,993.0000
863.16,999.4000
863.41,993.8000
863.66,1012.4000
863.91,1027.4000
864.16,1001.0000
864.40,987.6000
864.65,1003.4000
864.90,978.8000
865.15,980.6000
865.40,990.4000
865.64,1002.4000
865.89,997.2000
866.14,995.2000
866.39,981.2000
866.64,988.6000
866.88,980.6000
867.13,1007.6000
867.38,1018.0000
867.63,977.6000
867.87,971.2000
868.12,1005.8000
868.37,996.0000
868.62,970.2000
868.86,984.2000
869.11,981.6000
869.36,1003.8000
869.61,1011.8000
869.85,993.0000
870.10,1025.8000
870.35,1001.6000
870.60,991.2000
870.84,990.0000
871.09,989.4000
871.34,987.6000
871.59,980.6000
871.83,1011.8000
872.08,1002.4000
872.33,970.4000
872.57,994.2000
872.82,1001.2000
873.07,995.2000
873.32,1000.2000
873.56,1008.8000
873.81,1000.2000
874.06,1008.4000
874.30,991.4000
874.55,1015.0000
874.80,989.4000
875.04,1009.4000
875.29,988.4000
875.54,1003.4000
875.78,995.6000
876.03,988.0000
876.28,994.8000
876.52,984.0000
876.77,985.4000
877.02,1002.4000
877.26,992.6000
877.51,977.0000
877.76,996.8000
878.00,1001.4000
878.25,990.6000
878.50,1002.2000
878.74,987.4000
878.99,1008.2000
879.23,984.8000
879.48,974.8000
879.73,1000.0000
879.97,994.2000
880.22,983.6000
880.47,990.2000
880.71,968.0000
880.96,1023.0000
881.20,989.6000
881.45,983.0000
881.70,991.6000
881.94,987.8000
882.19,976.0000
882.43,1008.2000
882.68,985.2000
882.92,1026.6000
883.17,996.2000
883.42,1007.0000
883.66,989.8000
883.91,982.8000
884.15,977.8000
884.40,993.0000
884.64,998.8000
884.89,1003.6000
885.14,997.2000
885.38,1013.2000
885.63,1003.4000
885.87,999.2000
886.12,989.2000
886.36,1005.2000
886.61,997.2000
886.85,1003.6000
887.10,993.6000
887.34,978.0000
887.59,992.8000
887.83,992.8000
888.08,1007.6000
888.32,968.8000
888.57,1005.4000
888.81,1001.2000
889.06,1011.8000
889.30,978.0000
889.55,991.8000
889.79,982.2000
890.04,997.8000
890.28,983.2000
890.53,997.2000
890.77,1023.0000
891.02,995.6000
891.26,996.2000
891.51,986.2000
891.75,998.0000
892.00,988.2000
892.24,989.4000
892.49,989.8000
892.73,1009.4000
892.98,1009.0000
893.22,997.0000
893.47,965.0000
893.71,988.6000
893.95,987.2000
894.20,980.6000
894.44,986.8000
894.69,1032.4000
894.93,1039.2000
895.18,993.8000
895.42,1007.6000
895.66,992.0000
895.91,990.8000
896.15,990.6000
896.40,1009.8000
896.64,1019.2000
896.88,988.2000
897.13,1009.8000
897.37,985.0000
897.62,999.0000
897.86,1014.4000
898.10,994.2000
898.35,985.0000
898.59,1004.6000
898.84,1008.6000
899.08,1005.8000
899.32,1010.0000
899.57,1006.6000
899.81,983.2000
900.05,971.0000
900.30,994.4000
900.54,993.2000
900.78,1032.6000
901.03,1024.6000
901.27,984.4000
901.52,984.8000
901.76,1002.8000
902.00,1009.0000
902.25,1002.2000
902.49,982.6000
902.73,1001.2000
902.98,984.2000
903.22,999.6000
903.46,979.0000
903.70,999.4000
903.95,995.2000
904.19,1007.8000
904.43,1003.8000
904.68,996.0000
904.92,979.4000
905.16,992.4000
905.41,1007.6000
905.65,990.8000
905.89,990.6000
906.13,1025.0000
906.38,994.0000
906.62,1005.4000
906.86,973.6000
907.11,986.8000
907.35,992.0000
907.59,1015.2000
907.83,1032.0000
908.08,984.8000
908.32,980.2000
908.56,1004.0000
908.80,1006.4000
909.05,1003.8000
909.29,1012.2000
909.53,990.6000
909.77,998.6000
910.02,983.8000
910.26,1027.8000
910.50,996.0000
910.74,1000.2000
910.98,990.8000
911.23,1016.8000
911.47,995.6000
911.71,1001.0000
911.95,979.8000
912.20,1000.4000
912.44,975.4000
912.68,999.2000
912.92,1001.4000
913.16,1007.4000
913.41,959.4000
913.65,999.6000
913.89,993.4000
914.13,979.4000
914.37,982.2000
914.61,1014.0000
914.86,994.8000
915.10,994.6000
915.34,1001.8000
915.58,981.4000
915.82,978.8000
916.06,988.2000
916.31,990.4000
916.55,985.8000
916.79,1017.2000
917.03,1018.4000
917.27,982.4000
917.51,1022.6000
917.75,993.0000
918.00,979.2000
918.24,1023.6000
918.48,1004.2000
918.72,1038.8000
918.96,996.4000
919.20,1010.6000
919.44,1029.0000
919.68,1052.8000
919.92,1003.6000
920.17,985.6000
920.41,991.0000
920.65,1000.0000
920.89,994.0000
921.13,1009.2000
921.37,1002.2000
921.61,973.2000
921.85,999.6000
922.09,994.8000
922.33,1015.8000
922.57,998.0000
922.81,975.6000
923.05,997.2000
923.30,981.4000
923.54,982.0000
923.78,976.2000
924.02,1009.8000
924.26,1002.6000
924.50,990.2000
924.74,1000.8000
924.98,980.6000
925.22,1000.0000
925.46,987.6000
925.70,999.6000
925.94,1024.2000
926.18,993.4000
926.42,992.8000
926.66,1004.8000
926.90,991.4000
927.14,976.2000
927.38,986.8000
927.62,987.2000
927.86,1017.8000
928.10,1025.4000
928.34,983.2000
928.58,979.6000
928.82,983.8000
929.06,997.2000
929.30,1029.8000
929.54,993.2000
929.78,981.0000
930.02,978.0000
930.26,989.8000
930.50,983.6000
930.74,994.2000
930.98,998.0000
931.22,1004.4000
931.46,993.6000
931.70,996.6000
931.94,1005.2000
932.17,989.8000
932.41,1004.8000
932.65,987.8000
932.89,984.8000
933.13,989.4000
933.37,1006.0000
933.61,962.6000
933.85,989.2000
934.09,980.6000
934.33,981.8000
934.57,962.4000
934.81,986.0000
935.05,991.6000
935.28,1000.8000
935.52,989.6000
935.76,984.4000
936.00,998.4000
936.24,1000.0000
936.48,988.2000
936.72,996.0000
936.96,996.4000
937.19,991.8000
937.43,1008.4000
937.67,982.0000
937.91,992.0000
938.15,978.0000
938.39,988.8000
938.63,987.2000
938.86,986.0000
939.10,982.0000
939.34,986.8000
939.58,967.8000
939.82,972.6000
940.06,984.4000
940.30,970.4000
940.53,977.8000
940.77,966.6000
941.01,959.4000
941.25,965.8000
