Wavelength (nm),Intensity
394.27,1023.2000
394.56,997.6000
394.85,1013.8000
395.14,990.0000
395.44,1001.0000
395.73,1001.2000
396.02,987.2000
396.31,999.4000
396.61,1004.0000
396.90,982.0000
397.19,1006.6000
397.48,1013.8000
397.77,985.4000
398.06,1013.8000
398.36,1009.6000
398.65,996.0000
398.94,1003.4000
399.23,987.0000
399.52,1001.8000
399.82,1002.8000
400.11,994.2000
400.40,1011.0000
400.69,993.4000
400.98,1000.4000
401.27,1013.6000
401.57,976.2000
401.86,1000.0000
402.15,988.8000
402.44,993.0000
402.73,991.0000
403.02,1017.0000
403.32,989.0000
403.61,995.0000
403.90,986.8000
404.19,1004.8000
404.48,1010.2000
404.77,999.6000
405.06,1014.4000
405.36,1018.6000
405.65,1003.6000
405.94,974.0000
406.23,1012.0000
406.52,1013.0000
406.81,1015.4000
407.10,1011.2000
407.40,1008.0000
407.69,1005.2000
407.98,1010.6000
408.27,993.8000
408.56,983.8000
408.85,1033.0000
409.14,992.8000
409.43,1003.2000
409.72,999.0000
410.02,1039.8000
410.31,1008.4000
410.60,1011.2000
410.89,1014.2000
411.18,999.8000
411.47,990.2000
411.76,1003.0000
412.05,991.8000
412.34,998.6000
412.63,988.8000
412.93,1040.4000
413.22,1016.0000
413.51,992.2000
413.80,999.2000
414.09,990.8000
414.38,994.0000
414.67,1021.6000
414.96,978.0000
415.25,1038.6000
415.54,1010.4000
415.83,980.8000
416.12,981.0000
416.41,975.6000
416.70,1007.4000
417.00,1010.4000
417.29,999.8000
417.58,1011.2000
417.87,987.6000
418.16,1012.6000
418.45,991.4000
418.74,989.4000
419.03,1006.0000
419.32,1018.0000
419.61,1014.8000
419.90,1003.2000
420.19,1003.8000
420.48,996.2000
420.77,983.2000
421.06,994.6000
421.35,1005.8000
421.64,998.0000
421.93,984.6000
422.22,999.8000
422.51,1021.0000
422.80,1005.8000
423.09,991.6000
423.38,1018.0000
423.67,1005.2000
423.96,985.6000
424.25,996.6000
424.54,990.2000
424.83,967.6000
425.12,988.4000
425.41,994.0000
425.70,1055.6000
425.99,1009.2000
426.28,1005.0000
426.57,1001.6000
426.86,999.2000
427.15,1007.8000
427.44,1020.6000
427.73,1012.2000
428.02,990.2000
428.31,1004.6000
428.60,1019.8000
428.89,1010.8000
429.18,996.6000
429.47,1005.2000
429.76,990.8000
430.05,997.6000
430.34,1009.4000
430.63,989.6000
430.92,1022.0000
431.21,1012.2000
431.50,982.8000
431.79,990.8000
432.08,984.6000
432.37,991.8000
432.66,994.0000
432.94,991.8000
433.23,1003.4000
433.52,1019.0000
433.81,1008.4000
434.10,1065.6000
434.39,1003.4000
434.68,1014.6000
434.97,993.4000
435.26,992.0000
435.55,997.4000
435.84,997.2000
436.13,994.2000
436.42,998.4000
436.71,993.6000
436.99,985.4000
437.28,994.2000
437.57,1010.2000
437.86,995.4000
438.15,1007.8000
438.44,985.4000
438.73,1008.8000
439.02,1003.0000
439.31,1019.4000
439.60,991.0000
439.88,994.4000
440.17,995.6000
440.46,1022.4000
440.75,987.4000
441.04,982.8000
441.33,1016.0000
441.62,1004.4000
441.91,985.4000
442.20,996.4000
442.48,1000.8000
442.77,988.0000
443.06,990.6000
443.35,979.8000
443.64,997.6000
443.93,973.2000
444.22,990.6000
444.50,1007.8000
444.79,1003.8000
445.08,1004.0000
445.37,1007.8000
445.66,985.0000
445.95,985.6000
446.24,977.6000
446.52,993.6000
446.81,1024.0000
447.10,978.0000
447.39,1011.0000
447.68,988.6000
447.97,984.8000
448.25,1010.8000
448.54,1007.8000
448.83,1009.8000
449.12,1024.8000
449.41,996.8000
449.69,1008.4000
449.98,991.4000
450.27,992.8000
450.56,998.6000
450.85,998.4000
451.14,976.4000
451.42,991.6000
451.71,999.0000
452.00,1000.2000
452.29,1005.4000
452.58,994.4000
452.86,994.0000
453.15,993.8000
453.44,988.2000
453.73,1010.8000
454.01,981.6000
454.30,1050.6000
454.59,978.8000
454.88,978.6000
455.17,985.2000
455.45,997.0000
455.74,1031.6000
456.03,1006.0000
456.32,985.2000
456.60,998.6000
456.89,992.0000
457.18,991.6000
457.47,979.8000
457.76,986.8000
458.04,989.2000
458.33,992.8000
458.62,991.2000
458.91,976.8000
459.19,972.8000
459.48,977.8000
459.77,974.0000
460.06,993.0000
460.34,997.6000
460.63,991.8000
460.92,989.0000
461.20,977.2000
461.49,988.4000
461.78,984.0000
462.07,984.0000
462.35,981.8000
462.64,998.8000
462.93,1012.4000
463.22,1014.2000
463.50,995.4000
463.79,1001.0000
464.08,1015.4000
464.36,999.8000
464.65,996.0000
464.94,999.0000
465.22,997.0000
465.51,987.4000
465.80,1018.4000
466.09,997.0000
466.37,1015.2000
466.66,1010.8000
466.95,990.8000
467.23,986.6000
467.52,995.4000
467.81,1029.6000
468.09,989.2000
468.38,1002.2000
468.67,1029.2000
468.95,988.6000
469.24,977.0000
469.53,1000.6000
469.81,1000.0000
470.10,998.4000
470.39,1009.0000
470.67,988.2000
470.96,999.2000
471.25,987.0000
471.53,1009.0000
471.82,994.8000
472.11,1004.0000
472.39,980.6000
472.68,996.4000
472.97,989.4000
473.25,1008.0000
473.54,986.0000
473.82,988.8000
474.11,996.2000
474.40,1002.8000
474.68,1023.4000
474.97,1014.2000
475.26,1000.0000
475.54,975.0000
475.83,999.6000
476.11,990.0000
476.40,1001.2000
476.69,999.4000
476.97,1001.2000
477.26,1001.8000
477.55,1020.6000
477.83,974.6000
478.12,999.8000
478.40,990.4000
478.69,998.2000
478.98,1003.8000
479.26,972.8000
479.55,996.0000
479.83,995.8000
480.12,1007.2000
480.40,1002.4000
480.69,980.6000
480.98,998.0000
481.26,999.0000
481.55,983.0000
481.83,1009.8000
482.12,988.8000
482.41,991.0000
482.69,975.6000
482.98,999.6000
483.26,1019.8000
483.55,988.0000
483.83,987.8000
484.12,990.0000
484.40,997.0000
484.69,985.2000
484.98,1001.4000
485.26,997.0000
485.55,997.0000
485.83,972.8000
486.12,997.4000
486.40,995.0000
486.69,991.0000
486.97,980.6000
487.26,1002.6000
487.54,990.0000
487.83,994.6000
488.11,993.6000
488.40,1023.6000
488.68,1027.4000
488.97,987.2000
489.26,1001.8000
489.54,1004.2000
489.83,1003.0000
490.11,995.6000
490.40,998.8000
490.68,996.4000
490.97,983.2000
491.25,997.6000
491.54,978.2000
491.82,1008.0000
492.11,1004.0000
492.39,1010.2000
492.68,990.6000
492.96,1010.4000
493.24,988.6000
493.53,989.0000
493.81,1023.6000
494.10,984.6000
494.38,983.6000
494.67,991.8000
494.95,1017.4000
495.24,974.2000
495.52,1002.4000
495.81,1003.4000
496.09,1007.6000
496.38,977.6000
496.66,1012.8000
496.95,998.8000
497.23,993.0000
497.51,982.2000
497.80,998.4000
498.08,991.4000
498.37,975.4000
498.65,997.8000
498.94,1020.4000
499.22,994.2000
499.51,984.6000
499.79,994.6000
500.07,981.0000
500.36,1014.6000
500.64,1008.8000
500.93,990.8000
501.21,1017.4000
501.50,989.2000
501.78,991.2000
502.06,980.6000
502.35,984.4000
502.63,978.2000
502.92,999.6000
503.20,1019.4000
503.48,1026.8000
503.77,1002.8000
504.05,997.4000
504.34,980.2000
504.62,995.8000
504.90,995.6000
505.19,1019.6000
505.47,995.0000
505.76,979.0000
506.04,988.0000
506.32,1006.6000
506.61,987.8000
506.89,1013.6000
507.17,995.2000
507.46,998.2000
507.74,1010.6000
508.03,1000.2000
508.31,1003.8000
508.59,976.6000
508.88,994.4000
509.16,987.6000
509.44,999.6000
509.73,1007.2000
510.01,999.0000
510.29,1004.2000
510.58,980.4000
510.86,1007.6000
511.14,1009.2000
511.43,996.4000
511.71,992.6000
511.99,1001.2000
512.28,993.8000
512.56,987.4000
512.84,1002.6000
513.13,985.8000
513.41,990.0000
513.69,982.2000
513.98,973.2000
514.26,992.4000
514.54,990.2000
514.83,1000.6000
515.11,997.2000
515.39,1008.4000
515.68,1008.0000
515.96,983.8000
516.24,988.8000
516.53,983.6000
516.81,1022.6000
517.09,978.4000
517.37,988.8000
517.66,981.4000
517.94,990.8000
518.22,996.2000
518.51,984.0000
518.79,999.4000
519.07,986.0000
519.35,1000.2000
519.64,1005.6000
519.92,1001.0000
520.20,1004.8000
520.48,1007.0000
520.77,987.8000
521.05,985.2000
521.33,971.8000
521.62,987.6000
521.90,998.0000
522.18,998.8000
522.46,993.8000
522.75,986.6000
523.03,992.2000
523.31,982.6000
523.59,1017.4000
523.88,1005.0000
524.16,987.0000
524.44,1019.6000
524.72,1013.2000
525.00,1007.6000
525.29,1004.8000
525.57,987.6000
525.85,990.8000
526.13,976.4000
526.42,970.0000
526.70,1004.8000
526.98,982.2000
527.26,980.6000
527.54,979.8000
527.83,992.4000
528.11,996.2000
528.39,1000.4000
528.67,1005.2000
528.95,997.6000
529.24,980.8000
529.52,1002.6000
529.80,1000.6000
530.08,1001.4000
530.36,988.2000
530.65,1011.2000
530.93,988.8000
531.21,991.2000
531.49,989.8000
531.77,1006.6000
532.05,1000.6000
532.34,997.8000
532.62,982.6000
532.90,1012.2000
533.18,1003.6000
533.46,1000.8000
533.74,999.2000
534.03,983.6000
534.31,991.4000
534.59,988.4000
534.87,1005.8000
535.15,993.6000
535.43,996.2000
535.71,986.8000
536.00,1000.4000
536.28,992.8000
536.56,1000.6000
536.84,998.0000
537.12,975.2000
537.40,997.6000
537.68,988.0000
537.97,1005.6000
538.25,983.6000
538.53,1003.0000
538.81,1007.8000
539.09,980.2000
539.37,995.2000
539.65,988.8000
539.93,995.6000
540.21,984.6000
540.50,972.4000
540.78,1004.6000
541.06,996.4000
541.34,1001.2000
541.62,1000.8000
541.90,1019.2000
542.18,996.6000
542.46,1008.4000
542.74,1000.0000
543.02,991.0000
543.30,991.8000
543.58,999.2000
543.87,997.0000
544.15,991.8000
544.43,1008.6000
544.71,999.2000
544.99,994.4000
545.27,996.0000
545.55,978.8000
545.83,987.2000
546.11,1002.8000
546.39,1000.8000
546.67,1004.6000
546.95,995.6000
547.23,981.2000
547.51,988.2000
547.79,1004.0000
548.07,1007.0000
548.35,982.4000
548.63,970.6000
548.91,1011.8000
549.20,991.4000
549.48,1019.6000
549.76,971.0000
550.04,981.8000
550.32,993.0000
550.60,977.6000
550.88,978.0000
551.16,988.8000
551.44,1008.4000
551.72,979.0000
552.00,981.8000
552.28,1001.8000
552.56,1029.0000
552.84,1010.8000
553.12,1006.2000
553.40,997.8000
553.68,996.6000
553.96,1002.6000
554.24,984.4000
554.52,989.6000
554.80,991.6000
555.08,1002.2000
555.36,975.2000
555.64,1021.2000
555.92,995.4000
556.19,981.0000
556.47,993.2000
556.75,1000.4000
557.03,995.6000
557.31,1011.6000
557.59,1009.0000
557.87,985.6000
558.15,996.0000
558.43,991.2000
558.71,987.0000
558.99,983.6000
559.27,1000.6000
559.55,976.2000
559.83,991.6000
560.11,1004.2000
560.39,981.6000
560.67,1001.6000
560.95,1000.8000
561.23,994.8000
561.50,984.6000
561.78,983.0000
562.06,982.6000
562.34,976.4000
562.62,997.8000
562.90,1021.2000
563.18,992.8000
563.46,982.6000
563.74,999.6000
564.02,1019.4000
564.30,996.2000
564.57,994.8000
564.85,973.2000
565.13,1004.6000
565.41,994.0000
565.69,999.4000
565.97,999.4000
566.25,979.8000
566.53,987.2000
566.81,1009.4000
567.08,996.0000
567.36,981.8000
567.64,993.6000
567.92,1014.4000
568.20,983.2000
568.48,998.4000
568.76,1006.2000
569.04,1000.8000
569.31,1016.2000
569.59,1005.0000
569.87,996.6000
570.15,982.8000
570.43,1005.0000
570.71,992.6000
570.99,996.8000
571.26,1005.0000
571.54,998.2000
571.82,984.8000
572.10,982.6000
572.38,990.4000
572.66,996.4000
572.93,995.0000
573.21,990.0000
573.49,1000.0000
573.77,1016.8000
574.05,977.0000
574.32,980.0000
574.60,995.0000
574.88,1005.2000
575.16,1013.4000
575.44,984.8000
575.71,997.4000
575.99,1052.0000
576.27,1008.8000
576.55,987.8000
576.83,1013.4000
577.10,1009.8000
577.38,997.8000
577.66,987.0000
577.94,994.2000
578.22,967.8000
578.49,1002.0000
578.77,987.0000
579.05,1006.6000
579.33,995.8000
579.60,995.8000
579.88,998.0000
580.16,1005.2000
580.44,995.4000
580.72,986.8000
580.99,991.6000
581.27,989.6000
581.55,992.4000
581.83,994.4000
582.10,991.2000
582.38,998.6000
582.66,1010.2000
582.94,992.0000
583.21,1016.4000
583.49,1014.6000
583.77,989.4000
584.04,1001.0000
584.32,1001.4000
584.60,1010.8000
584.88,988.6000
585.15,998.6000
585.43,984.4000
585.71,993.8000
585.98,982.0000
586.26,985.6000
586.54,997.8000
586.82,994.2000
587.09,977.4000
587.37,1002.8000
587.65,975.4000
587.92,992.6000
588.20,1006.6000
588.48,1030.0000
588.75,981.2000
589.03,990.2000
589.31,992.0000
589.59,979.0000
589.86,1020.0000
590.14,991.2000
590.42,1003.8000
590.69,995.2000
590.97,966.2000
591.25,978.6000
591.52,987.8000
591.80,1011.0000
592.08,998.0000
592.35,996.2000
592.63,1000.6000
592.91,1006.8000
593.18,989.2000
593.46,985.2000
593.73,993.8000
594.01,1003.8000
594.29,1011.2000
594.56,982.8000
594.84,994.0000
595.12,1002.6000
595.39,1003.8000
595.67,984.4000
595.95,988.8000
596.22,989.0000
596.50,991.4000
596.77,984.6000
597.05,1022.0000
597.33,1011.0000
597.60,985.2000
597.88,994.6000
598.15,996.8000
598.43,990.2000
598.71,978.6000
598.98,1053.0000
599.26,1014.0000
599.53,987.6000
599.81,1010.8000
600.09,986.8000
600.36,989.8000
600.64,991.6000
600.91,981.2000
601.19,990.0000
601.47,995.2000
601.74,977.4000
602.02,986.4000
602.29,991.8000
602.57,1007.2000
602.84,996.0000
603.12,984.8000
603.40,981.0000
603.67,986.4000
603.95,996.4000
604.22,1027.6000
604.50,984.8000
604.77,990.2000
605.05,988.0000
605.32,983.6000
605.60,1009.6000
605.87,972.8000
606.15,991.4000
606.42,990.4000
606.70,988.6000
606.98,989.4000
607.25,1002.0000
607.53,1008.2000
607.80,999.2000
608.08,995.8000
608.35,990.4000
608.63,979.2000
608.90,1000.2000
609.18,1003.2000
609.45,989.2000
609.73,1009.0000
610.00,1020.2000
610.28,998.0000
610.55,987.4000
610.83,986.8000
611.10,984.2000
611.38,1002.2000
611.65,1001.6000
611.93,987.4000
612.20,1002.8000
612.48,960.6000
612.75,998.4000
613.03,981.4000
613.30,995.4000
613.57,995.4000
613.85,984.4000
614.12,1015.2000
614.40,988.0000
614.67,982.2000
614.95,993.8000
615.22,994.2000
615.50,981.0000
615.77,1014.2000
616.05,1000.8000
616.32,1007.8000
616.59,999.4000
616.87,992.0000
617.14,1004.8000
617.42,997.0000
617.69,1002.2000
617.97,977.4000
618.24,994.8000
618.51,968.0000
618.79,994.4000
619.06,978.0000
619.34,1006.6000
619.61,984.8000
619.88,1016.0000
620.16,988.8000
620.43,1002.4000
620.71,986.4000
620.98,986.8000
621.26,992.8000
621.53,995.4000
621.80,996.6000
622.08,996.4000
622.35,977.8000
622.62,999.8000
622.90,1003.0000
623.17,998.4000
623.45,1001.4000
623.72,1009.6000
623.99,1000.8000
624.27,1000.0000
624.54,1014.4000
624.81,1017.2000
625.09,1000.6000
625.36,998.8000
625.64,1011.0000
625.91,1004.2000
626.18,984.8000
626.46,993.8000
626.73,1036.2000
627.00,1019.8000
627.28,977.0000
627.55,998.4000
627.82,986.0000
628.10,1015.0000
628.37,976.6000
628.64,972.2000
628.92,989.6000
629.19,982.8000
629.46,993.8000
629.74,977.2000
630.01,993.4000
630.28,983.6000
630.56,1002.2000
630.83,969.8000
631.10,981.6000
631.37,1001.0000
631.65,972.4000
631.92,993.0000
632.19,995.0000
632.47,1022.6000
632.74,999.0000
633.01,998.8000
633.28,976.2000
633.56,1004.4000
633.83,974.8000
634.10,985.8000
634.38,991.2000
634.65,989.6000
634.92,992.4000
635.19,1015.6000
635.47,1000.6000
635.74,983.4000
636.01,978.8000
636.28,978.4000
636.56,992.4000
636.83,986.6000
637.10,1007.0000
637.37,1010.6000
637.65,992.8000
637.92,978.0000
638.19,971.0000
638.46,1014.4000
638.74,993.0000
639.01,1019.6000
639.28,965.0000
639.55,1018.4000
639.83,969.8000
640.10,985.4000
640.37,999.8000
640.64,980.2000
640.91,1004.4000
641.19,996.6000
641.46,996.4000
641.73,1018.8000
642.00,983.8000
642.28,1016.0000
642.55,996.8000
642.82,985.2000
643.09,1017.6000
643.36,996.4000
643.63,998.8000
643.91,1006.8000
644.18,998.2000
644.45,989.4000
644.72,996.4000
644.99,998.0000
645.27,972.8000
645.54,999.6000
645.81,1027.2000
646.08,1009.4000
646.35,981.6000
646.62,987.8000
646.90,998.4000
647.17,1015.0000
647.44,989.2000
647.71,999.4000
647.98,974.2000
648.25,996.6000
648.52,976.6000
648.80,993.2000
649.07,979.8000
649.34,992.2000
649.61,983.4000
649.88,1014.6000
650.15,1009.2000
650.42,999.6000
650.69,984.2000
650.97,1004.8000
651.24,1005.2000
651.51,1007.8000
651.78,1015.0000
652.05,976.0000
652.32,1000.6000
652.59,1021.6000
652.86,984.0000
653.13,978.8000
653.41,992.4000
653.68,1008.4000
653.95,1001.0000
654.22,1002.4000
654.49,993.8000
654.76,981.2000
655.03,1009.8000
655.30,989.8000
655.57,990.8000
655.84,1003.0000
656.11,1016.0000
656.38,994.8000
656.66,988.2000
656.93,979.4000
657.20,985.8000
657.47,1022.2000
657.74,994.0000
658.01,1005.8000
658.28,993.8000
658.55,992.4000
658.82,989.4000
659.09,997.2000
659.36,994.2000
659.63,982.2000
659.90,995.2000
660.17,1004.2000
660.44,982.8000
660.71,996.4000
660.98,1009.6000
661.25,1005.8000
661.52,992.6000
661.79,983.0000
662.06,997.6000
662.33,981.4000
662.60,979.4000
662.87,1002.4000
663.14,980.0000
663.41,983.8000
663.68,976.4000
663.95,974.2000
664.22,999.4000
664.49,1003.4000
664.76,986.6000
665.03,970.8000
665.30,991.2000
665.57,979.0000
665.84,982.2000
666.11,986.6000
666.38,974.8000
666.65,985.4000
666.92,1038.8000
667.19,986.4000
667.46,1010.4000
667.73,994.0000
668.00,989.6000
668.27,993.0000
668.54,1001.8000
668.81,988.2000
669.08,1002.0000
669.35,988.2000
669.62,1015.8000
669.89,982.4000
670.16,1009.8000
670.42,982.8000
670.69,991.4000
670.96,997.2000
671.23,996.8000
671.50,974.6000
671.77,982.8000
672.04,997.6000
672.31,991.6000
672.58,977.0000
672.85,984.0000
673.12,989.8000
673.39,994.0000
673.65,977.4000
673.92,1000.2000
674.19,987.6000
674.46,990.4000
674.73,989.2000
675.00,979.6000
675.27,1003.8000
675.54,997.8000
675.81,994.2000
676.07,985.8000
676.34,1014.8000
676.61,1014.8000
676.88,976.4000
677.15,989.0000
677.42,1005.8000
677.69,995.8000
677.96,993.8000
678.22,998.4000
678.49,981.6000
678.76,993.4000
679.03,976.0000
679.30,988.4000
679.57,976.0000
679.83,1014.2000
680.10,991.8000
680.37,1008.0000
680.64,1005.6000
680.91,979.8000
681.18,1006.0000
681.44,979.2000
681.71,980.8000
681.98,1003.0000
682.25,993.6000
682.52,996.4000
682.79,992.8000
683.05,1008.0000
683.32,987.2000
683.59,1014.4000
683.86,995.4000
684.13,1009.2000
684.39,980.4000
684.66,991.8000
684.93,1004.6000
685.20,996.6000
685.47,989.6000
685.73,1009.6000
686.00,976.8000
686.27,992.6000
686.54,985.6000
686.80,1015.0000
687.07,1001.0000
687.34,971.0000
687.61,994.8000
687.88,988.0000
688.14,985.4000
688.41,1006.2000
688.68,975.2000
688.95,978.2000
689.21,993.0000
689.48,1023.8000
689.75,1002.0000
690.02,984.2000
690.28,978.6000
690.55,979.0000
690.82,972.8000
691.08,990.0000
691.35,999.2000
691.62,1008.8000
691.89,1010.0000
692.15,996.8000
692.42,993.4000
692.69,968.8000
692.95,982.2000
693.22,987.2000
693.49,996.0000
693.76,989.6000
694.02,990.2000
694.29,1003.2000
694.56,981.8000
694.82,1001.4000
695.09,974.2000
695.36,987.2000
695.62,988.4000
695.89,1013.4000
696.16,968.6000
696.43,1016.0000
696.69,1015.6000
696.96,1013.2000
697.23,979.6000
697.49,1007.4000
697.76,1007.8000
698.03,973.8000
698.29,983.2000
698.56,993.4000
698.82,992.4000
699.09,1012.8000
699.36,1003.4000
699.62,1006.0000
699.89,1001.6000
700.16,965.4000
700.42,999.2000
700.69,1009.4000
700.96,994.4000
701.22,1010.0000
701.49,988.4000
701.75,1013.0000
702.02,975.6000
702.29,994.2000
702.55,982.8000
702.82,999.6000
703.09,1011.8000
703.35,1007.6000
703.62,1000.4000
703.88,1022.8000
704.15,982.0000
704.42,997.0000
704.68,972.8000
704.95,1007.8000
705.21,989.8000
705.48,1004.2000
705.75,986.2000
706.01,988.6000
706.28,976.6000
706.54,990.4000
706.81,1007.6000
707.07,995.0000
707.34,978.0000
707.61,1008.4000
707.87,994.6000
708.14,1012.0000
708.40,994.8000
708.67,1005.8000
708.93,993.4000
709.20,989.4000
709.46,1001.0000
709.73,1015.2000
709.99,1001.8000
710.26,985.2000
710.53,984.2000
710.79,964.4000
711.06,989.8000
711.32,1057.6000
711.59,1022.2000
711.85,1015.0000
712.12,994.2000
712.38,981.6000
712.65,985.6000
712.91,991.8000
713.18,1005.4000
713.44,997.8000
713.71,980.6000
713.97,997.8000
714.24,991.0000
714.50,985.4000
714.77,982.4000
715.03,1006.4000
715.30,1006.6000
715.56,996.8000
715.83,986.2000
716.09,994.4000
716.36,1035.2000
716.62,993.2000
716.89,972.4000
717.15,1010.8000
717.42,977.6000
717.68,981.4000
717.94,980.4000
718.21,987.2000
718.47,1000.8000
718.74,995.4000
719.00,1008.8000
719.27,1004.4000
719.53,987.4000
719.80,994.6000
720.06,997.8000
720.32,1011.0000
720.59,1004.0000
720.85,1003.2000
721.12,973.4000
721.38,1001.0000
721.65,986.4000
721.91,989.2000
722.17,978.6000
722.44,1016.0000
722.70,985.0000
722.97,988.6000
723.23,1001.4000
723.49,996.0000
723.76,974.2000
724.02,1018.6000
724.29,1012.4000
724.55,998.4000
724.81,996.2000
725.08,993.8000
725.34,1014.2000
725.61,992.8000
725.87,1006.8000
726.13,998.6000
726.40,1012.4000
726.66,990.8000
726.92,995.4000
727.19,985.2000
727.45,984.2000
727.71,997.6000
727.98,983.4000
728.24,1009.0000
728.51,1008.0000
728.77,973.8000
729.03,1011.2000
729.30,1004.8000
729.56,995.0000
729.82,1018.6000
730.09,987.8000
730.35,972.0000
730.61,996.6000
730.88,979.2000
731.14,988.8000
731.40,1006.4000
731.67,991.2000
731.93,993.4000
732.19,1002.2000
732.45,997.4000
732.72,979.4000
732.98,994.6000
733.24,984.8000
733.51,987.2000
733.77,989.6000
734.03,1002.2000
734.30,1001.8000
734.56,998.2000
734.82,964.8000
735.08,1005.8000
735.35,993.4000
735.61,1011.6000
735.87,993.6000
736.14,1015.2000
736.40,1005.8000
736.66,997.2000
736.92,999.0000
737.19,992.0000
737.45,994.6000
737.71,996.4000
737.97,994.4000
738.24,997.6000
738.50,1003.4000
738.76,1022.6000
739.02,980.4000
739.29,1011.2000
739.55,1013.6000
739.81,1004.0000
740.07,990.8000
740.33,992.4000
740.60,990.4000
740.86,1006.2000
741.12,992.2000
741.38,986.2000
741.65,1005.6000
741.91,984.0000
742.17,1000.0000
742.43,977.0000
742.69,987.6000
742.96,1019.6000
743.22,1004.4000
743.48,1007.2000
743.74,1006.2000
744.00,1002.0000
744.26,1004.8000
744.53,993.2000
744.79,982.6000
745.05,983.6000
745.31,980.0000
745.57,1005.4000
745.84,993.0000
746.10,989.8000
746.36,994.6000
746.62,982.8000
746.88,997.2000
747.14,1005.2000
747.40,989.6000
747.67,978.0000
747.93,988.4000
748.19,992.0000
748.45,1000.6000
748.71,992.6000
748.97,1004.8000
749.23,1006.2000
749.50,1012.4000
749.76,985.8000
750.02,986.6000
750.28,1010.0000
750.54,985.2000
750.80,1003.0000
751.06,968.6000
751.32,985.4000
751.59,1005.6000
751.85,1000.4000
752.11,1017.4000
752.37,1016.0000
752.63,1000.0000
752.89,1009.6000
753.15,1023.4000
753.41,979.8000
753.67,1003.4000
753.93,999.8000
754.19,992.4000
754.46,1020.8000
754.72,974.6000
754.98,995.0000
755.24,1007.6000
755.50,976.0000
755.76,997.0000
756.02,997.4000
756.28,978.0000
756.54,993.8000
756.80,1016.8000
757.06,1008.0000
757.32,981.6000
757.58,989.6000
757.84,1020.6000
758.10,983.8000
758.36,982.6000
758.62,992.0000
758.88,996.4000
759.14,1010.4000
759.40,985.2000
759.66,979.0000
759.92,1010.0000
760.18,1000.0000
760.44,994.6000
760.70,1008.0000
760.96,999.0000
761.22,991.6000
761.48,993.0000
761.74,1005.2000
762.00,991.8000
762.26,995.8000
762.52,993.2000
762.78,998.6000
763.04,985.2000
763.30,1014.6000
763.56,968.4000
763.82,988.4000
764.08,999.6000
764.34,1000.8000
764.60,998.0000
764.86,999.6000
765.12,984.2000
765.38,1004.8000
765.64,1011.4000
765.90,1029.4000
766.16,975.8000
766.42,988.6000
766.68,982.4000
766.94,990.0000
767.20,988.0000
767.46,983.2000
767.72,978.4000
767.98,997.8000
768.23,993.8000
768.49,998.2000
768.75,1002.0000
769.01,1020.0000
769.27,984.8000
769.53,1003.8000
769.79,1005.6000
770.05,1004.6000
770.31,990.6000
770.57,1011.0000
770.83,979.6000
771.08,994.2000
771.34,984.0000
771.60,1009.4000
771.86,982.4000
772.12,983.4000
772.38,992.0000
772.64,996.4000
772.90,985.2000
773.16,999.0000
773.41,999.0000
773.67,977.2000
773.93,1008.8000
774.19,997.2000
774.45,990.4000
774.71,1001.6000
774.97,987.6000
775.22,986.4000
775.48,1007.4000
775.74,977.2000
776.00,1007.4000
776.26,980.0000
776.52,972.4000
776.77,999.8000
777.03,1006.4000
777.29,992.4000
777.55,975.6000
777.81,996.4000
778.07,989.6000
778.32,983.8000
778.58,981.2000
778.84,988.0000
779.10,992.4000
779.36,989.8000
779.61,988.0000
779.87,990.4000
780.13,985.8000
780.39,996.2000
780.65,972.6000
780.90,981.8000
781.16,996.0000
781.42,978.6000
781.68,980.0000
781.94,999.6000
782.19,992.2000
782.45,998.2000
782.71,1003.0000
782.97,998.6000
783.22,1008.4000
783.48,987.4000
783.74,970.2000
784.00,1000.8000
784.25,993.0000
784.51,981.4000
784.77,1010.0000
785.03,993.0000
785.28,976.0000
785.54,983.8000
785.80,994.6000
786.06,977.2000
786.31,972.6000
786.57,995.6000
786.83,990.4000
787.08,1008.8000
787.34,979.6000
787.60,1000.8000
787.86,975.2000
788.11,997.4000
788.37,985.4000
788.63,999.0000
788.88,1031.0000
789.14,999.4000
789.40,990.4000
789.65,1003.0000
789.91,1014.6000
790.17,990.0000
790.42,987.8000
790.68,1000.2000
790.94,995.2000
791.20,1016.0000
791.45,1020.2000
791.71,1000.2000
791.97,993.4000
792.22,1010.0000
792.48,992.2000
792.73,977.2000
792.99,1003.4000
793.25,960.2000
793.50,991.4000
793.76,1002.0000
794.02,968.8000
794.27,978.8000
794.53,1002.6000
794.79,994.6000
795.04,1002.8000
795.30,989.0000
795.55,992.2000
795.81,976.2000
796.07,1001.0000
796.32,995.4000
796.58,990.6000
796.84,989.2000
797.09,1000.2000
797.35,998.8000
797.60,995.2000
797.86,982.0000
798.12,1009.0000
798.37,1004.4000
798.63,994.4000
798.88,979.8000
799.14,987.2000
799.39,975.2000
799.65,1008.0000
799.91,964.0000
800.16,992.0000
800.42,992.8000
800.67,1015.4000
800.93,1003.0000
801.18,979.0000
801.44,991.2000
801.70,998.2000
801.95,998.6000
802.21,999.0000
802.46,985.2000
802.72,995.4000
802.97,1016.8000
803.23,1000.6000
803.48,996.8000
803.74,981.2000
803.99,974.2000
804.25,991.4000
804.50,1013.8000
804.76,986.6000
805.02,974.2000
805.27,1004.0000
805.53,1013.8000
805.78,977.8000
806.04,1005.8000
806.29,987.2000
806.55,998.8000
806.80,989.6000
807.06,1037.2000
807.31,975.4000
807.56,996.6000
807.82,1005.2000
808.07,1009.6000
808.33,997.8000
808.58,987.6000
808.84,1000.4000
809.09,987.6000
809.35,1014.6000
809.60,983.4000
809.86,988.4000
810.11,1009.2000
810.37,983.8000
810.62,986.6000
810.88,977.2000
811.13,1003.0000
811.38,983.8000
811.64,1006.4000
811.89,990.0000
812.15,984.0000
812.40,984.8000
812.66,993.8000
812.91,1006.4000
813.16,974.4000
813.42,994.2000
813.67,994.0000
813.93,979.4000
814.18,1000.2000
814.44,1029.4000
814.69,995.2000
814.94,986.4000
815.20,984.0000
815.45,980.2000
815.71,990.0000
815.96,972.6000
816.21,983.6000
816.47,1007.8000
816.72,985.0000
816.97,992.6000
817.23,981.8000
817.48,974.0000
817.74,988.0000
817.99,995.4000
818.24,1007.6000
818.50,981.8000
818.75,1019.0000
819.00,991.8000
819.26,998.2000
819.51,1028.4000
819.76,972.2000
820.02,987.2000
820.27,984.4000
820.52,968.4000
820.78,971.2000
821.03,994.0000
821.28,1015.0000
821.54,1000.8000
821.79,974.8000
822.04,988.8000
822.30,983.8000
822.55,1001.2000
822.80,991.0000
823.06,987.2000
823.31,982.0000
823.56,1004.2000
823.82,1006.6000
824.07,991.2000
824.32,979.8000
824.57,978.4000
824.83,995.8000
825.08,1014.8000
825.33,997.4000
825.59,967.6000
825.84,988.6000
826.09,995.6000
826.34,985.4000
826.60,987.0000
826.85,989.6000
827.10,989.0000
827.35,1008.6000
827.61,961.6000
827.86,984.4000
828.11,1002.2000
828.36,968.4000
828.62,991.2000
828.87,1019.8000
829.12,979.4000
829.37,1002.0000
829.63,969.8000
829.88,1009.0000
830.13,997.6000
830.38,998.0000
830.63,963.2000
830.89,973.2000
831.14,989.6000
831.39,1001.2000
831.64,1001.2000
831.89,998.4000
832.15,971.0000
832.40,989.0000
832.65,1004.2000
832.90,982.6000
833.15,1004.6000
833.41,994.4000
833.66,1047.8000
833.91,1011.0000
834.16,989.8000
834.41,1007.8000
834.67,964.8000
834.92,1000.6000
835.17,977.8000
835.42,987.8000
835.67,983.4000
835.92,989.6000
836.17,976.0000
836.43,1007.8000
836.68,1010.6000
836.93,978.2000
837.18,992.6000
837.43,973.4000
837.68,997.2000
837.93,968.8000
838.19,984.0000
838.44,966.2000
838.69,993.0000
838.94,972.4000
839.19,965.8000
839.44,985.8000
839.69,999.6000
839.94,982.6000
840.20,1003.6000
840.45,1019.8000
840.70,1015.4000
840.95,978.8000
841.20,984.6000
841.45,979.2000
841.70,994.0000
841.95,991.8000
842.20,985.6000
842.45,1032.4000
842.70,1002.6000
842.95,974.6000
843.21,1008.4000
843.46,973.2000
843.71,993.6000
843.96,1020.0000
844.21,979.6000
844.46,971.0000
844.71,977.4000
844.96,1022.2000
845.21,980.6000
845.46,980.6000
845.71,1008.4000
845.96,996.0000
846.21,987.4000
846.46,1004.2000
846.71,980.2000
846.96,967.2000
847.21,1010.2000
847.46,997.0000
847.71,989.4000
847.96,987.0000
848.21,975.8000
848.46,989.6000
848.71,1010.2000
848.96,1004.4000
849.21,1003.6000
849.46,980.2000
849.71,1002.6000
849.96,974.8000
850.21,982.8000
850.46,1005.6000
850.71,981.4000
850.96,958.2000
851.21,983.2000
851.46,974.4000
851.71,977.8000
851.96,972.0000
852.21,970.0000
852.46,973.6000
852.71,986.6000
852.96,989.8000
853.21,990.0000
853.46,997.8000
853.71,1009.8000
853.96,986.4000
854.21,977.8000
854.46,1024.4000
854.70,991.4000
854.95,993.0000
855.20,977.6000
855.45,1006.6000
855.70,993.2000
855.95,986.8000
856.20,1001.6000
856.45,978.4000
856.70,997.0000
856.95,999.2000
857.20,979.0000
857.44,1016.2000
857.69,980.2000
857.94,990.4000
858.19,997.6000
858.44,979.2000
858.69,997.8000
858.94,994.6000
859.19,987.4000
859.44,983.0000
859.68,1000.6000
859.93,982.4000
860.18,976.4000
860.43,1001.0000
860.68,1017.8000
860.93,993.8000
861.18,994.4000
861.42,992.2000
861.67,996.0000
861.92,997.4000
862.17,996.8000
862.42,999.0000
862.67,987.2000
862.91,999.8000
863.16,994.8000
863.41,987.2000
863.66,1012.0000
863.91,1015.2000
864.16,998.8000
864.40,986.0000
864.65,1004.0000
864.90,976.2000
865.15,975.8000
865.40,986.8000
865.64,1002.8000
865.89,994.2000
866.14,1010.0000
866.39,992.8000
866.64,994.0000
866.88,976.6000
867.13,1005.6000
867.38,1005.2000
867.63,969.2000
867.87,978.8000
868.12,998.4000
868.37,1005.6000
868.62,974.4000
868.86,975.8000
869.11,967.2000
869.36,1009.0000
869.61,1002.6000
869.85,995.4000
870.10,1028.6000
870.35,998.0000
870.60,986.4000
870.84,989.4000
871.09,979.2000
871.34,985.8000
871.59,995.4000
871.83,1002.2000
872.08,1001.2000
872.33,967.6000
872.57,997.0000
872.82,1007.8000
873.07,990.0000
873.32,1004.6000
873.56,1000.6000
873.81,989.0000
874.06,1003.8000
874.30,985.6000
874.55,999.4000
874.80,978.4000
875.04,1008.2000
875.29,990.0000
875.54,1003.8000
875.78,984.0000
876.03,1007.6000
876.28,988.6000
876.52,969.8000
876.77,984.4000
877.02,1005.8000
877.26,979.2000
877.51,987.2000
877.76,999.2000
878.00,994.2000
878.25,988.0000
878.50,1015.8000
878.74,987.4000
878.99,1001.4000
879.23,970.0000
879.48,973.0000
879.73,1001.2000
879.97,1001.4000
880.22,984.8000
880.47,996.0000
880.71,970.4000
880.96,1028.0000
881.20,978.8000
881.45,994.2000
881.70,991.0000
881.94,988.4000
882.19,989.4000
882.43,1004.2000
882.68,988.4000
882.92,1013.8000
883.17,991.6000
883.42,1002.0000
883.66,991.4000
883.91,989.2000
884.15,977.0000
884.40,992.4000
884.64,984.0000
884.89,1007.0000
885.14,996.0000
885.38,1011.6000
885.63,997.2000
885.87,987.8000
886.12,989.6000
886.36,1003.8000
886.61,994.2000
886.85,992.0000
887.10,1001.2000
887.34,979.0000
887.59,1003.0000
887.83,981.8000
888.08,1008.2000
888.32,974.2000
888.57,1014.4000
888.81,995.4000
889.06,1006.6000
889.30,972.2000
889.55,992.4000
889.79,990.0000
890.04,997.8000
890.28,994.6000
890.53,999.0000
890.77,1012.6000
891.02,995.6000
891.26,998.4000
891.51,987.0000
891.75,998.0000
892.00,991.8000
892.24,994.6000
892.49,983.6000
892.73,1007.0000
892.98,997.6000
893.22,990.4000
893.47,969.4000
893.71,1008.6000
893.95,999.2000
894.20,985.0000
894.44,984.6000
894.69,1031.2000
894.93,1029.6000
895.18,991.2000
895.42,997.4000
895.66,984.8000
895.91,987.2000
896.15,975.4000
896.40,1004.0000
896.64,1008.4000
896.88,987.8000
897.13,995.8000
897.37,977.2000
897.62,990.6000
897.86,1007.0000
898.10,996.6000
898.35,984.8000
898.59,1003.4000
898.84,998.2000
899.08,989.2000
899.32,994.2000
899.57,1005.8000
899.81,973.8000
900.05,985.8000
900.30,984.4000
900.54,982.4000
900.78,1028.4000
901.03,1009.0000
901.27,995.8000
901.52,978.6000
901.76,999.8000
902.00,1003.0000
902.25,987.4000
902.49,984.0000
902.73,1002.6000
902.98,985.0000
903.22,996.6000
903.46,991.2000
903.70,992.4000
903.95,990.2000
904.19,1010.6000
904.43,1012.6000
904.68,983.8000
904.92,990.2000
905.16,979.6000
905.41,1000.2000
905.65,988.4000
905.89,991.2000
906.13,1021.6000
906.38,983.6000
906.62,1003.2000
906.86,978.4000
907.11,987.4000
907.35,989.8000
907.59,1006.2000
907.83,1022.8000
908.08,998.6000
908.32,969.4000
908.56,997.2000
908.80,997.2000
909.05,1004.8000
909.29,1006.2000
909.53,989.2000
909.77,984.4000
910.02,979.8000
910.26,1021.4000
910.50,973.6000
910.74,993.0000
910.98,999.2000
911.23,1009.8000
911.47,1000.8000
911.71,1001.8000
911.95,989.4000
912.20,1005.4000
912.44,976.0000
912.68,986.4000
912.92,993.2000
913.16,1004.8000
913.41,961.4000
913.65,1005.0000
913.89,990.6000
914.13,989.6000
914.37,980.4000
914.61,1024.8000
914.86,995.0000
915.10,995.8000
915.34,1003.4000
915.58,984.4000
915.82,971.8000
916.06,990.6000
916.31,984.4000
916.55,996.4000
916.79,1006.0000
917.03,1005.6000
917.27,981.8000
917.51,1006.8000
917.75,990.4000
918.00,983.6000
918.24,1019.2000
918.48,996.6000
918.72,1037.6000
918.96,992.8000
919.20,1013.2000
919.44,1033.6000
919.68,1048.4000
919.92,1008.4000
920.17,995.2000
920.41,987.6000
920.65,999.6000
920.89,989.2000
921.13,997.0000
921.37,999.4000
921.61,970.6000
921.85,994.0000
922.09,1003.6000
922.33,1001.4000
922.57,990.8000
922.81,976.6000
923.05,999.8000
923.30,992.0000
923.54,990.6000
923.78,970.4000
924.02,1010.2000
924.26,988.2000
924.50,994.4000
924.74,986.6000
924.98,984.2000
925.22,1000.6000
925.46,996.6000
925.70,1006.2000
925.94,1026.2000
926.18,984.6000
926.42,1001.2000
926.66,1002.4000
926.90,996.4000
927.14,992.8000
927.38,988.4000
927.62,983.4000
927.86,1025.4000
928.10,1030.0000
928.34,991.8000
928.58,977.8000
928.82,994.2000
929.06,985.6000
929.30,1033.2000
929.54,991.0000
929.78,979.4000
930.02,967.4000
930.26,1001.4000
930.50,991.6000
930.74,997.8000
930.98,989.0000
931.22,1001.8000
931.46,988.6000
931.70,993.6000
931.94,1001.6000
932.17,995.6000
932.41,1005.8000
932.65,986.2000
932.89,984.8000
933.13,990.4000
933.37,992.6000
933.61,969.8000
933.85,987.4000
934.09,982.0000
934.33,979.6000
934.57,953.2000
934.81,975.4000
935.05,1001.6000
935.28,992.0000
935.52,977.0000
935.76,970.0000
936.00,1006.2000
936.24,1001.0000
936.48,986.4000
936.72,992.2000
936.96,990.0000
937.19,984.4000
937.43,1016.0000
937.67,984.4000
937.91,983.6000
938.15,991.0000
938.39,975.6000
938.63,986.2000
938.86,978.4000
939.10,987.6000
939.34,977.2000
939.58,970.0000
939.82,982.4000
940.06,984.8000
940.30,969.4000
940.53,982.6000
940.77,973.8000
941.01,978.6000
941.25,975.6000
