Wavelength (nm),Intensity
394.27,1012.6000
394.56,1009.4000
394.85,1018.2000
395.14,1007.2000
395.44,994.6000
395.73,1005.0000
396.02,988.2000
396.31,996.8000
396.61,1012.2000
396.90,992.2000
397.19,1005.6000
397.48,1008.4000
397.77,981.4000
398.06,1007.8000
398.36,1010.4000
398.65,989.4000
398.94,992.2000
399.23,984.8000
399.52,992.0000
399.82,1000.6000
400.11,985.4000
400.40,1003.4000
400.69,992.2000
400.98,995.0000
401.27,1020.0000
401.57,985.6000
401.86,999.4000
402.15,989.0000
402.44,991.6000
402.73,992.8000
403.02,1013.0000
403.32,989.8000
403.61,1003.8000
403.90,988.4000
404.19,1007.8000
404.48,1019.6000
404.77,1007.0000
405.06,1002.2000
405.36,1021.4000
405.65,1008.2000
405.94,978.4000
406.23,1010.6000
406.52,1006.8000
406.81,1016.8000
407.10,1007.0000
407.40,998.6000
407.69,1000.8000
407.98,1002.4000
408.27,999.8000
408.56,983.2000
408.85,1028.2000
409.14,999.2000
409.43,1007.4000
409.72,996.4000
410.02,1039.2000
410.31,997.2000
410.60,1006.6000
410.89,1017.2000
411.18,998.4000
411.47,997.0000
411.76,999.2000
412.05,1000.2000
412.34,998.0000
412.63,989.8000
412.93,1042.8000
413.22,1017.0000
413.51,987.4000
413.80,1007.6000
414.09,979.0000
414.38,984.8000
414.67,995.8000
414.96,984.2000
415.25,1041.6000
415.54,1008.4000
415.83,980.8000
416.12,982.8000
416.41,974.6000
416.70,1010.4000
417.00,1015.6000
417.29,993.0000
417.58,1006.2000
417.87,999.8000
418.16,1008.6000
418.45,987.2000
418.74,996.8000
419.03,988.8000
419.32,1023.6000
419.61,1018.0000
419.90,1015.8000
420.19,1008.2000
420.48,996.2000
420.77,977.2000
421.06,987.2000
421.35,997.0000
421.64,1001.0000
421.93,984.0000
422.22,1004.8000
422.51,1020.6000
422.80,990.4000
423.09,996.6000
423.38,1033.4000
423.67,992.6000
423.96,991.2000
424.25,991.2000
424.54,992.2000
424.83,974.8000
425.12,990.0000
425.41,993.2000
425.70,1056.6000
425.99,1002.2000
426.28,1003.2000
426.57,995.2000
426.86,992.8000
427.15,999.6000
427.44,1022.4000
427.73,1020.2000
428.02,1002.0000
428.31,1006.6000
428.60,1021.6000
428.89,1007.0000
429.18,987.0000
429.47,1010.8000
429.76,989.8000
430.05,989.6000
430.34,1012.0000
430.63,990.0000
430.92,1032.6000
431.21,1009.8000
431.50,992.2000
431.79,990.0000
432.08,995.2000
432.37,994.8000
432.66,994.2000
432.94,989.2000
433.23,1010.0000
433.52,1015.0000
433.81,1009.8000
434.10,1054.0000
434.39,1002.6000
434.68,1028.0000
434.97,987.6000
435.26,989.6000
435.55,1012.6000
435.84,996.6000
436.13,990.6000
436.42,1022.8000
436.71,980.2000
436.99,991.6000
437.28,994.8000
437.57,1006.0000
437.86,988.0000
438.15,1010.0000
438.44,993.6000
438.73,1004.8000
439.02,1019.2000
439.31,1023.4000
439.60,991.8000
439.88,1000.2000
440.17,997.2000
440.46,1007.4000
440.75,984.6000
441.04,984.8000
441.33,1018.6000
441.62,1000.4000
441.91,981.6000
442.20,991.6000
442.48,1005.2000
442.77,993.6000
443.06,1001.4000
443.35,989.6000
443.64,997.4000
443.93,993.2000
444.22,986.2000
444.50,1008.6000
444.79,1007.0000
445.08,999.8000
445.37,1007.4000
445.66,992.0000
445.95,979.2000
446.24,982.0000
446.52,988.4000
446.81,1016.6000
447.10,985.8000
447.39,1002.2000
447.68,987.4000
447.97,972.4000
448.25,1007.8000
448.54,1006.8000
448.83,1003.8000
449.12,1029.4000
449.41,990.4000
449.69,990.2000
449.98,985.6000
450.27,999.2000
450.56,974.0000
450.85,1008.6000
451.14,972.4000
451.42,997.8000
451.71,1012.6000
452.00,990.0000
452.29,1003.2000
452.58,991.2000
452.86,996.2000
453.15,995.6000
453.44,992.8000
453.73,1010.8000
454.01,990.6000
454.30,1054.0000
454.59,973.8000
454.88,986.0000
455.17,988.8000
455.45,996.6000
455.74,1025.4000
456.03,997.4000
456.32,987.2000
456.60,993.0000
456.89,988.0000
457.18,995.6000
457.47,988.6000
457.76,992.4000
458.04,993.8000
458.33,989.8000
458.62,997.2000
458.91,969.2000
459.19,974.8000
459.48,979.0000
459.77,979.0000
460.06,993.2000
460.34,999.2000
460.63,997.0000
460.92,989.6000
461.20,968.4000
461.49,1003.4000
461.78,974.6000
462.07,984.0000
462.35,999.2000
462.64,995.6000
462.93,1001.4000
463.22,1010.4000
463.50,1007.4000
463.79,992.2000
464.08,1012.6000
464.36,1003.2000
464.65,992.6000
464.94,983.4000
465.22,1005.6000
465.51,980.0000
465.80,1013.2000
466.09,996.0000
466.37,1013.0000
466.66,1015.2000
466.95,996.6000
467.23,988.6000
467.52,997.0000
467.81,1025.4000
468.09,993.6000
468.38,994.6000
468.67,1017.6000
468.95,1004.4000
469.24,976.4000
469.53,1002.2000
469.81,1005.6000
470.10,1000.2000
470.39,996.8000
470.67,976.4000
470.96,995.4000
471.25,979.8000
471.53,1011.0000
471.82,1002.8000
472.11,990.4000
472.39,985.4000
472.68,996.8000
472.97,981.4000
473.25,994.8000
473.54,983.8000
473.82,991.6000
474.11,995.0000
474.40,988.4000
474.68,1030.6000
474.97,1025.6000
475.26,1005.8000
475.54,982.4000
475.83,996.0000
476.11,992.6000
476.40,1006.8000
476.69,1000.8000
476.97,996.2000
477.26,1004.6000
477.55,1020.0000
477.83,970.4000
478.12,994.8000
478.40,989.2000
478.69,1000.6000
478.98,989.8000
479.26,979.6000
479.55,1004.4000
479.83,998.4000
480.12,992.4000
480.40,1009.2000
480.69,1001.2000
480.98,992.0000
481.26,1013.6000
481.55,995.2000
481.83,988.8000
482.12,993.4000
482.41,993.8000
482.69,975.8000
482.98,1007.0000
483.26,1011.0000
483.55,986.8000
483.83,987.8000
484.12,996.8000
484.40,1000.8000
484.69,980.2000
484.98,1005.2000
485.26,988.8000
485.55,995.0000
485.83,970.4000
486.12,1000.4000
486.40,993.8000
486.69,993.0000
486.97,986.6000
487.26,1003.0000
487.54,991.0000
487.83,985.8000
488.11,989.8000
488.40,1019.2000
488.68,1017.6000
488.97,1010.8000
489.26,997.8000
489.54,1007.0000
489.83,1004.0000
490.11,982.6000
490.40,1000.0000
490.68,1005.0000
490.97,971.0000
491.25,996.6000
491.54,977.4000
491.82,999.8000
492.11,997.8000
492.39,1016.2000
492.68,997.8000
492.96,1011.2000
493.24,981.6000
493.53,981.0000
493.81,1018.6000
494.10,985.4000
494.38,984.2000
494.67,996.8000
494.95,1023.2000
495.24,968.8000
495.52,995.6000
495.81,1009.2000
496.09,1002.2000
496.38,972.2000
496.66,1010.4000
496.95,999.6000
497.23,995.0000
497.51,972.8000
497.80,985.8000
498.08,987.8000
498.37,977.8000
498.65,989.4000
498.94,1016.2000
499.22,996.8000
499.51,983.6000
499.79,997.4000
500.07,976.4000
500.36,1009.6000
500.64,1001.4000
500.93,990.8000
501.21,1014.0000
501.50,991.6000
501.78,1001.8000
502.06,973.4000
502.35,986.8000
502.63,986.8000
502.92,1000.2000
503.20,1010.8000
503.48,1034.6000
503.77,989.8000
504.05,996.0000
504.34,982.6000
504.62,995.2000
504.90,1013.8000
505.19,1017.4000
505.47,990.8000
505.76,985.6000
506.04,992.6000
506.32,1006.6000
506.61,987.8000
506.89,1003.8000
507.17,989.8000
507.46,995.0000
507.74,1018.8000
508.03,987.2000
508.31,1002.4000
508.59,983.0000
508.88,983.2000
509.16,1023.0000
509.44,1002.2000
509.73,988.8000
510.01,991.4000
510.29,1006.6000
510.58,992.6000
510.86,998.0000
511.14,1012.4000
511.43,995.8000
511.71,1009.8000
511.99,999.2000
512.28,989.8000
512.56,973.6000
512.84,998.4000
513.13,971.4000
513.41,983.4000
513.69,997.0000
513.98,973.2000
514.26,990.4000
514.54,981.6000
514.83,998.8000
515.11,997.4000
515.39,1003.6000
515.68,1003.8000
515.96,987.0000
516.24,986.6000
516.53,988.6000
516.81,1022.4000
517.09,968.8000
517.37,983.2000
517.66,981.0000
517.94,989.6000
518.22,988.6000
518.51,983.8000
518.79,1002.8000
519.07,987.0000
519.35,995.8000
519.64,1013.2000
519.92,1005.6000
520.20,1001.2000
520.48,1008.0000
520.77,993.6000
521.05,987.0000
521.33,968.0000
521.62,988.6000
521.90,996.4000
522.18,983.8000
522.46,990.8000
522.75,975.8000
523.03,999.2000
523.31,980.8000
523.59,1016.0000
523.88,1006.0000
524.16,993.8000
524.44,1011.2000
524.72,1009.4000
525.00,1018.6000
525.29,992.6000
525.57,987.0000
525.85,996.2000
526.13,983.2000
526.42,980.4000
526.70,990.2000
526.98,979.8000
527.26,976.4000
527.54,993.4000
527.83,990.0000
528.11,992.8000
528.39,997.2000
528.67,997.2000
528.95,988.8000
529.24,978.4000
529.52,1009.8000
529.80,1000.8000
530.08,997.0000
530.36,989.6000
530.65,1009.4000
530.93,990.0000
531.21,991.8000
531.49,994.4000
531.77,1002.2000
532.05,985.0000
532.34,998.8000
532.62,978.4000
532.90,1002.6000
533.18,1000.4000
533.46,989.8000
533.74,1002.6000
534.03,989.6000
534.31,986.6000
534.59,1004.8000
534.87,1003.4000
535.15,1008.2000
535.43,999.0000
535.71,992.8000
536.00,1000.6000
536.28,992.0000
536.56,999.6000
536.84,1004.4000
537.12,988.0000
537.40,999.2000
537.68,998.0000
537.97,1006.0000
538.25,973.4000
538.53,997.8000
538.81,998.0000
539.09,969.8000
539.37,989.0000
539.65,987.6000
539.93,985.4000
540.21,983.4000
540.50,971.8000
540.78,1008.8000
541.06,1004.4000
541.34,1004.2000
541.62,1004.4000
541.90,1008.8000
542.18,989.0000
542.46,998.0000
542.74,998.2000
543.02,994.8000
543.30,997.0000
543.58,1009.8000
543.87,1005.8000
544.15,983.4000
544.43,1008.0000
544.71,997.6000
544.99,997.4000
545.27,997.4000
545.55,973.4000
545.83,989.8000
546.11,1001.0000
546.39,997.4000
546.67,1009.6000
546.95,990.4000
547.23,990.4000
547.51,977.0000
547.79,991.4000
548.07,1013.8000
548.35,997.4000
548.63,977.4000
548.91,1004.8000
549.20,992.8000
549.48,1027.2000
549.76,986.6000
550.04,988.4000
550.32,1000.2000
550.60,983.2000
550.88,974.8000
551.16,995.4000
551.44,1007.6000
551.72,970.4000
552.00,973.4000
552.28,995.0000
552.56,1019.0000
552.84,1015.6000
553.12,1001.2000
553.40,989.6000
553.68,1000.4000
553.96,1010.8000
554.24,976.4000
554.52,999.4000
554.80,991.8000
555.08,1003.6000
555.36,976.8000
555.64,993.6000
555.92,983.2000
556.19,1001.0000
556.47,993.2000
556.75,997.6000
557.03,997.4000
557.31,1009.4000
557.59,1015.0000
557.87,985.0000
558.15,999.4000
558.43,984.0000
558.71,984.0000
558.99,995.6000
559.27,1016.4000
559.55,982.0000
559.83,987.4000
560.11,995.0000
560.39,983.4000
560.67,988.8000
560.95,1009.6000
561.23,995.8000
561.50,986.0000
561.78,975.6000
562.06,978.2000
562.34,986.0000
562.62,991.4000
562.90,1021.4000
563.18,997.8000
563.46,984.4000
563.74,1001.2000
564.02,1020.2000
564.30,992.2000
564.57,990.8000
564.85,977.6000
565.13,1014.8000
565.41,986.2000
565.69,985.4000
565.97,1005.6000
566.25,983.2000
566.53,989.6000
566.81,1013.6000
567.08,998.4000
567.36,986.6000
567.64,991.4000
567.92,1006.2000
568.20,978.2000
568.48,984.6000
568.76,1002.4000
569.04,1007.0000
569.31,1002.4000
569.59,996.4000
569.87,987.2000
570.15,971.8000
570.43,1005.6000
570.71,996.6000
570.99,990.4000
571.26,1007.6000
571.54,1008.4000
571.82,995.2000
572.10,985.0000
572.38,990.0000
572.66,999.6000
572.93,989.0000
573.21,994.2000
573.49,988.4000
573.77,1022.8000
574.05,972.4000
574.32,990.6000
574.60,998.2000
574.88,996.0000
575.16,1013.4000
575.44,988.8000
575.71,997.0000
575.99,1048.4000
576.27,1004.0000
576.55,982.6000
576.83,1013.2000
577.10,1000.8000
577.38,997.8000
577.66,986.0000
577.94,985.0000
578.22,972.8000
578.49,1000.6000
578.77,981.8000
579.05,1017.4000
579.33,992.8000
579.60,1006.6000
579.88,1000.8000
580.16,1002.8000
580.44,997.6000
580.72,982.8000
580.99,999.4000
581.27,986.6000
581.55,1001.6000
581.83,986.8000
582.10,993.6000
582.38,1000.6000
582.66,1007.8000
582.94,1005.8000
583.21,1016.2000
583.49,1001.0000
583.77,1000.2000
584.04,1004.4000
584.32,1004.4000
584.60,1002.0000
584.88,988.2000
585.15,1015.6000
585.43,983.6000
585.71,985.0000
585.98,987.2000
586.26,984.2000
586.54,991.6000
586.82,1002.2000
587.09,982.8000
587.37,1006.0000
587.65,977.8000
587.92,987.2000
588.20,1006.4000
588.48,1029.6000
588.75,979.6000
589.03,980.4000
589.31,984.6000
589.59,983.8000
589.86,1028.6000
590.14,988.8000
590.42,1011.6000
590.69,1003.6000
590.97,986.0000
591.25,986.2000
591.52,971.8000
591.80,1011.0000
592.08,1000.2000
592.35,995.6000
592.63,993.6000
592.91,1005.6000
593.18,999.6000
593.46,987.4000
593.73,1003.4000
594.01,1009.4000
594.29,1013.8000
594.56,980.0000
594.84,1004.6000
595.12,1018.6000
595.39,1000.8000
595.67,988.0000
595.95,995.6000
596.22,990.0000
596.50,986.8000
596.77,991.6000
597.05,1023.8000
597.33,1009.6000
597.60,993.2000
597.88,995.2000
598.15,1004.2000
598.43,962.4000
598.71,980.8000
598.98,1050.4000
599.26,1031.4000
599.53,982.8000
599.81,998.8000
600.09,989.6000
600.36,978.2000
600.64,1004.0000
600.91,985.0000
601.19,987.8000
601.47,986.6000
601.74,979.2000
602.02,983.2000
602.29,996.2000
602.57,1007.4000
602.84,992.2000
603.12,986.8000
603.40,991.8000
603.67,991.0000
603.95,1001.6000
604.22,1037.6000
604.50,994.6000
604.77,997.4000
605.05,975.6000
605.32,995.2000
605.60,1004.6000
605.87,986.6000
606.15,990.8000
606.42,988.8000
606.70,988.6000
606.98,989.6000
607.25,992.6000
607.53,1000.8000
607.80,1000.8000
608.08,986.4000
608.35,989.0000
608.63,978.4000
608.90,1001.2000
609.18,1000.0000
609.45,991.0000
609.73,1013.0000
610.00,1025.8000
610.28,1000.8000
610.55,991.0000
610.83,979.6000
611.10,991.8000
611.38,992.0000
611.65,1000.2000
611.93,979.2000
612.20,998.2000
612.48,958.4000
612.75,990.6000
613.03,985.0000
613.30,997.2000
613.57,996.0000
613.85,987.0000
614.12,1020.4000
614.40,982.0000
614.67,984.2000
614.95,1002.6000
615.22,995.6000
615.50,976.4000
615.77,1014.8000
616.05,992.4000
616.32,998.0000
616.59,998.2000
616.87,988.8000
617.14,990.4000
617.42,1000.4000
617.69,998.4000
617.97,985.6000
618.24,985.6000
618.51,976.0000
618.79,990.0000
619.06,989.8000
619.34,993.8000
619.61,989.6000
619.88,1027.4000
620.16,1001.0000
620.43,1009.4000
620.71,973.8000
620.98,977.6000
621.26,995.0000
621.53,988.4000
621.80,989.6000
622.08,999.0000
622.35,975.4000
622.62,1001.6000
622.90,995.4000
623.17,988.2000
623.45,1004.4000
623.72,1015.8000
623.99,985.4000
624.27,985.0000
624.54,1007.4000
624.81,1020.2000
625.09,1011.2000
625.36,997.6000
625.64,1012.6000
625.91,1009.0000
626.18,988.6000
626.46,982.4000
626.73,1023.4000
627.00,1002.0000
627.28,976.2000
627.55,988.4000
627.82,985.8000
628.10,1007.0000
628.37,968.8000
628.64,987.4000
628.92,985.0000
629.19,980.6000
629.46,984.2000
629.74,977.0000
630.01,988.6000
630.28,985.2000
630.56,979.8000
630.83,971.0000
631.10,992.0000
631.37,995.2000
631.65,973.0000
631.92,992.8000
632.19,992.0000
632.47,1019.2000
632.74,997.8000
633.01,1000.8000
633.28,979.2000
633.56,986.0000
633.83,970.0000
634.10,973.8000
634.38,990.2000
634.65,999.8000
634.92,997.0000
635.19,1010.4000
635.47,990.6000
635.74,979.0000
636.01,975.8000
636.28,981.6000
636.56,997.8000
636.83,993.0000
637.10,1005.4000
637.37,1000.8000
637.65,994.6000
637.92,985.0000
638.19,971.4000
638.46,1017.2000
638.74,980.4000
639.01,1005.8000
639.28,970.6000
639.55,1009.6000
639.83,985.8000
640.10,984.8000
640.37,998.4000
640.64,989.2000
640.91,1001.4000
641.19,980.8000
641.46,996.2000
641.73,1024.2000
642.00,986.8000
642.28,1001.6000
642.55,987.4000
642.82,991.0000
643.09,1017.2000
643.36,991.6000
643.63,1000.6000
643.91,1001.4000
644.18,996.8000
644.45,992.8000
644.72,1010.0000
644.99,981.0000
645.27,972.0000
645.54,1001.0000
645.81,1037.4000
646.08,1004.0000
646.35,975.0000
646.62,988.0000
646.90,1001.2000
647.17,1012.6000
647.44,990.0000
647.71,1008.2000
647.98,967.0000
648.25,993.6000
648.52,974.2000
648.80,988.0000
649.07,989.8000
649.34,979.2000
649.61,979.8000
649.88,1020.8000
650.15,1003.8000
650.42,1006.4000
650.69,989.6000
650.97,1016.8000
651.24,1000.6000
651.51,1000.8000
651.78,1005.4000
652.05,984.2000
652.32,991.4000
652.59,1020.4000
652.86,978.6000
653.13,980.2000
653.41,1003.8000
653.68,1002.8000
653.95,1000.2000
654.22,995.8000
654.49,993.0000
654.76,975.6000
655.03,1012.4000
655.30,996.0000
655.57,981.6000
655.84,993.6000
656.11,1003.6000
656.38,990.8000
656.66,984.6000
656.93,977.2000
657.20,989.2000
657.47,1020.2000
657.74,997.6000
658.01,1013.0000
658.28,989.2000
658.55,992.0000
658.82,997.4000
659.09,1015.4000
659.36,996.4000
659.63,983.2000
659.90,991.0000
660.17,1008.6000
660.44,996.0000
660.71,993.2000
660.98,994.4000
661.25,994.8000
661.52,989.0000
661.79,988.2000
662.06,987.0000
662.33,987.4000
662.60,982.8000
662.87,1000.2000
663.14,995.0000
663.41,989.8000
663.68,975.8000
663.95,982.4000
664.22,1000.4000
664.49,998.6000
664.76,970.2000
665.03,967.6000
665.30,993.0000
665.57,984.8000
665.84,976.2000
666.11,973.2000
666.38,989.4000
666.65,995.2000
666.92,1040.0000
667.19,994.6000
667.46,1000.8000
667.73,996.4000
668.00,999.2000
668.27,994.2000
668.54,1005.2000
668.81,987.0000
669.08,994.6000
669.35,993.2000
669.62,1021.4000
669.89,996.4000
670.16,1013.6000
670.42,989.4000
670.69,996.4000
670.96,994.2000
671.23,995.0000
671.50,982.4000
671.77,976.0000
672.04,990.4000
672.31,988.8000
672.58,972.4000
672.85,990.2000
673.12,993.0000
673.39,1007.8000
673.65,984.2000
673.92,1000.0000
674.19,992.8000
674.46,998.2000
674.73,995.2000
675.00,994.6000
675.27,1000.6000
675.54,997.4000
675.81,991.6000
676.07,984.2000
676.34,1023.8000
676.61,1008.6000
676.88,975.2000
677.15,990.2000
677.42,1005.4000
677.69,996.8000
677.96,1002.0000
678.22,1004.2000
678.49,984.6000
678.76,981.6000
679.03,982.8000
679.30,978.0000
679.57,970.2000
679.83,1006.8000
680.10,990.4000
680.37,1011.0000
680.64,998.6000
680.91,983.2000
681.18,1001.8000
681.44,981.2000
681.71,986.0000
681.98,997.8000
682.25,1000.6000
682.52,1003.6000
682.79,992.8000
683.05,1009.4000
683.32,983.8000
683.59,995.8000
683.86,994.0000
684.13,1012.6000
684.39,990.0000
684.66,987.4000
684.93,1004.4000
685.20,994.8000
685.47,984.0000
685.73,998.6000
686.00,978.6000
686.27,1005.4000
686.54,988.0000
686.80,1017.4000
687.07,1012.2000
687.34,975.6000
687.61,991.0000
687.88,981.8000
688.14,984.4000
688.41,1019.4000
688.68,978.4000
688.95,983.8000
689.21,990.0000
689.48,1026.0000
689.75,993.6000
690.02,981.4000
690.28,982.0000
690.55,1000.0000
690.82,976.8000
691.08,996.2000
691.35,986.8000
691.62,1001.6000
691.89,999.6000
692.15,1001.2000
692.42,996.0000
692.69,975.4000
692.95,984.6000
693.22,999.0000
693.49,986.2000
693.76,989.0000
694.02,994.6000
694.29,997.0000
694.56,989.6000
694.82,1011.6000
695.09,969.6000
695.36,983.8000
695.62,974.8000
695.89,1011.2000
696.16,981.8000
696.43,1003.8000
696.69,1015.2000
696.96,1022.0000
697.23,990.6000
697.49,998.6000
697.76,1001.6000
698.03,983.4000
698.29,989.0000
698.56,994.8000
698.82,986.4000
699.09,1000.4000
699.36,1005.4000
699.62,1007.4000
699.89,1011.8000
700.16,970.6000
700.42,1010.8000
700.69,1000.4000
700.96,998.0000
701.22,1004.4000
701.49,986.2000
701.75,1008.2000
702.02,981.8000
702.29,988.8000
702.55,981.8000
702.82,994.4000
703.09,1009.0000
703.35,1006.0000
703.62,1010.6000
703.88,1022.6000
704.15,975.4000
704.42,990.6000
704.68,981.6000
704.95,1020.8000
705.21,986.4000
705.48,1002.8000
705.75,986.0000
706.01,1000.6000
706.28,992.8000
706.54,990.4000
706.81,997.2000
707.07,999.0000
707.34,968.4000
707.61,994.8000
707.87,1002.0000
708.14,1006.8000
708.40,998.6000
708.67,986.4000
708.93,1000.0000
709.20,986.8000
709.46,993.2000
709.73,1005.8000
709.99,992.8000
710.26,989.0000
710.53,994.8000
710.79,962.0000
711.06,999.2000
711.32,1150.2000
711.59,1022.6000
711.85,1016.0000
712.12,985.0000
712.38,973.4000
712.65,999.6000
712.91,995.2000
713.18,1002.2000
713.44,1007.8000
713.71,982.4000
713.97,1003.4000
714.24,989.6000
714.50,991.4000
714.77,997.0000
715.03,1004.0000
715.30,998.6000
715.56,999.6000
715.83,983.4000
716.09,999.2000
716.36,1022.4000
716.62,996.2000
716.89,976.8000
717.15,1018.8000
717.42,981.2000
717.68,977.4000
717.94,984.6000
718.21,987.8000
718.47,1006.2000
718.74,982.0000
719.00,1008.6000
719.27,1003.2000
719.53,977.0000
719.80,1003.0000
720.06,1007.2000
720.32,1019.6000
720.59,1001.4000
720.85,992.6000
721.12,967.8000
721.38,1007.6000
721.65,986.4000
721.91,993.6000
722.17,980.6000
722.44,1007.4000
722.70,991.4000
722.97,999.4000
723.23,994.0000
723.49,978.4000
723.76,976.0000
724.02,1020.4000
724.29,1009.8000
724.55,991.2000
724.81,1007.0000
725.08,1000.0000
725.34,1010.4000
725.61,983.0000
725.87,1003.4000
726.13,998.8000
726.40,1007.0000
726.66,992.4000
726.92,990.4000
727.19,994.0000
727.45,986.8000
727.71,993.2000
727.98,982.0000
728.24,1010.8000
728.51,992.4000
728.77,985.4000
729.03,997.2000
729.30,1002.0000
729.56,984.4000
729.82,1007.8000
730.09,999.2000
730.35,979.0000
730.61,1002.4000
730.88,995.2000
731.14,989.0000
731.40,995.4000
731.67,996.4000
731.93,994.2000
732.19,1004.2000
732.45,1006.4000
732.72,980.2000
732.98,990.8000
733.24,997.4000
733.51,984.6000
733.77,991.0000
734.03,999.8000
734.30,993.4000
734.56,1011.2000
734.82,969.8000
735.08,997.4000
735.35,1011.2000
735.61,1005.6000
735.87,1003.0000
736.14,1008.8000
736.40,1010.8000
736.66,997.4000
736.92,1003.4000
737.19,988.8000
737.45,1010.2000
737.71,982.2000
737.97,1004.2000
738.24,995.8000
738.50,1001.0000
738.76,1020.0000
739.02,992.4000
739.29,1005.0000
739.55,1018.0000
739.81,990.2000
740.07,997.0000
740.33,1005.6000
740.60,986.6000
740.86,1016.6000
741.12,1009.0000
741.38,994.0000
741.65,1009.0000
741.91,993.0000
742.17,998.6000
742.43,980.6000
742.69,989.6000
742.96,1016.6000
743.22,1000.6000
743.48,1002.6000
743.74,1000.0000
744.00,997.0000
744.26,994.6000
744.53,1000.8000
744.79,984.8000
745.05,999.4000
745.31,979.4000
745.57,998.4000
745.84,997.8000
746.10,995.4000
746.36,986.2000
746.62,988.6000
746.88,992.8000
747.14,1012.0000
747.40,981.0000
747.67,985.8000
747.93,1002.4000
748.19,987.0000
748.45,1010.4000
748.71,992.6000
748.97,1001.4000
749.23,1012.0000
749.50,1006.0000
749.76,981.4000
750.02,984.2000
750.28,1007.0000
750.54,980.4000
750.80,996.6000
751.06,978.8000
751.32,993.0000
751.59,1002.6000
751.85,1010.6000
752.11,1002.8000
752.37,1012.2000
752.63,1004.0000
752.89,1018.8000
753.15,1026.2000
753.41,979.6000
753.67,993.4000
753.93,1001.0000
754.19,990.8000
754.46,1020.0000
754.72,975.8000
754.98,997.8000
755.24,1012.0000
755.50,980.6000
755.76,997.6000
756.02,1005.2000
756.28,978.4000
756.54,988.6000
756.80,1016.4000
757.06,1006.0000
757.32,969.8000
757.58,982.4000
757.84,1008.8000
758.10,985.0000
758.36,977.6000
758.62,979.0000
758.88,987.4000
759.14,1015.4000
759.40,983.2000
759.66,973.0000
759.92,1005.4000
760.18,994.0000
760.44,996.2000
760.70,1002.0000
760.96,1000.2000
761.22,1005.8000
761.48,976.0000
761.74,995.8000
762.00,1002.0000
762.26,1006.4000
762.52,997.0000
762.78,999.4000
763.04,997.4000
763.30,1015.4000
763.56,973.0000
763.82,978.6000
764.08,994.2000
764.34,996.8000
764.60,1009.0000
764.86,998.4000
765.12,983.2000
765.38,994.6000
765.64,1011.0000
765.90,1028.2000
766.16,984.2000
766.42,992.8000
766.68,989.6000
766.94,977.8000
767.20,985.4000
767.46,985.4000
767.72,984.0000
767.98,1001.4000
768.23,991.4000
768.49,996.0000
768.75,1010.8000
769.01,1012.6000
769.27,976.2000
769.53,1005.4000
769.79,997.4000
770.05,1002.8000
770.31,982.2000
770.57,1012.4000
770.83,991.8000
771.08,1005.4000
771.34,984.0000
771.60,1008.4000
771.86,984.2000
772.12,982.0000
772.38,1003.2000
772.64,990.6000
772.90,976.0000
773.16,992.8000
773.41,1000.8000
773.67,972.6000
773.93,1002.6000
774.19,990.2000
774.45,1002.0000
774.71,1009.0000
774.97,982.0000
775.22,992.0000
775.48,999.4000
775.74,976.0000
776.00,995.4000
776.26,979.6000
776.52,974.4000
776.77,993.0000
777.03,1005.8000
777.29,984.8000
777.55,979.8000
777.81,990.6000
778.07,997.0000
778.32,996.2000
778.58,981.0000
778.84,986.2000
779.10,1002.8000
779.36,1000.4000
779.61,995.6000
779.87,999.2000
780.13,981.6000
780.39,991.4000
780.65,977.6000
780.90,977.8000
781.16,996.6000
781.42,986.2000
781.68,987.6000
781.94,994.4000
782.19,988.2000
782.45,999.4000
782.71,998.4000
782.97,1007.8000
783.22,1005.8000
783.48,992.2000
783.74,988.8000
784.00,992.6000
784.25,991.8000
784.51,974.2000
784.77,1011.6000
785.03,996.8000
785.28,990.8000
785.54,987.4000
785.80,991.8000
786.06,983.2000
786.31,981.0000
786.57,984.0000
786.83,985.4000
787.08,1004.8000
787.34,984.8000
787.60,1004.8000
787.86,982.6000
788.11,999.2000
788.37,985.4000
788.63,986.6000
788.88,1011.0000
789.14,996.8000
789.40,998.8000
789.65,1001.4000
789.91,1015.4000
790.17,986.4000
790.42,983.6000
790.68,988.0000
790.94,985.6000
791.20,1024.8000
791.45,1026.0000
791.71,997.0000
791.97,989.4000
792.22,1007.2000
792.48,996.4000
792.73,978.8000
792.99,1009.8000
793.25,975.6000
793.50,997.2000
793.76,1006.2000
794.02,974.8000
794.27,975.8000
794.53,1004.8000
794.79,989.2000
795.04,1007.2000
795.30,996.2000
795.55,1001.6000
795.81,980.2000
796.07,994.0000
796.32,989.6000
796.58,990.2000
796.84,987.4000
797.09,993.4000
797.35,987.6000
797.60,1002.4000
797.86,1007.4000
798.12,1013.6000
798.37,998.8000
798.63,986.0000
798.88,985.8000
799.14,991.8000
799.39,990.2000
799.65,1005.0000
799.91,970.4000
800.16,987.6000
800.42,991.0000
800.67,1010.4000
800.93,1006.4000
801.18,970.2000
801.44,996.4000
801.70,994.8000
801.95,994.2000
802.21,991.4000
802.46,988.0000
802.72,988.8000
802.97,1018.0000
803.23,1006.0000
803.48,993.4000
803.74,973.8000
803.99,976.2000
804.25,980.8000
804.50,1015.6000
804.76,989.2000
805.02,975.2000
805.27,999.4000
805.53,1014.4000
805.78,968.8000
806.04,1014.6000
806.29,979.4000
806.55,1010.2000
806.80,998.2000
807.06,1050.6000
807.31,971.8000
807.56,995.4000
807.82,997.2000
808.07,1008.6000
808.33,984.4000
808.58,998.4000
808.84,1020.6000
809.09,996.0000
809.35,1023.2000
809.60,985.6000
809.86,998.4000
810.11,1003.2000
810.37,1000.0000
810.62,963.4000
810.88,980.4000
811.13,1001.0000
811.38,980.6000
811.64,990.6000
811.89,993.2000
812.15,988.4000
812.40,989.8000
812.66,1006.2000
812.91,997.8000
813.16,974.6000
813.42,990.0000
813.67,995.0000
813.93,976.0000
814.18,1000.2000
814.44,1020.2000
814.69,997.4000
814.94,996.6000
815.20,986.4000
815.45,981.0000
815.71,989.8000
815.96,967.0000
816.21,990.8000
816.47,1000.6000
816.72,981.6000
816.97,983.0000
817.23,979.2000
817.48,983.6000
817.74,990.0000
817.99,995.8000
818.24,1017.6000
818.50,990.8000
818.75,1013.8000
819.00,992.0000
819.26,1006.6000
819.51,1046.4000
819.76,985.2000
820.02,997.8000
820.27,987.6000
820.52,967.0000
820.78,968.0000
821.03,1001.4000
821.28,1003.0000
821.54,1002.8000
821.79,988.8000
822.04,993.8000
822.30,983.6000
822.55,1012.0000
822.80,1000.0000
823.06,981.8000
823.31,982.0000
823.56,996.4000
823.82,998.2000
824.07,999.4000
824.32,976.2000
824.57,993.8000
824.83,989.2000
825.08,999.2000
825.33,987.0000
825.59,979.8000
825.84,983.4000
826.09,984.4000
826.34,978.4000
826.60,984.8000
826.85,992.2000
827.10,987.0000
827.35,1006.4000
827.61,972.2000
827.86,1006.6000
828.11,1001.0000
828.36,976.4000
828.62,988.4000
828.87,1011.4000
829.12,985.8000
829.37,1007.8000
829.63,982.4000
829.88,1002.0000
830.13,1010.2000
830.38,1006.8000
830.63,977.2000
830.89,985.4000
831.14,990.0000
831.39,1001.6000
831.64,994.4000
831.89,1011.2000
832.15,972.8000
832.40,986.4000
832.65,1008.0000
832.90,981.8000
833.15,996.2000
833.41,1007.8000
833.66,1042.8000
833.91,1024.4000
834.16,993.2000
834.41,1009.0000
834.67,968.0000
834.92,998.4000
835.17,984.4000
835.42,988.4000
835.67,990.6000
835.92,993.0000
836.17,981.8000
836.43,999.0000
836.68,1012.2000
836.93,971.0000
837.18,979.6000
837.43,986.2000
837.68,989.8000
837.93,972.6000
838.19,984.6000
838.44,985.2000
838.69,996.8000
838.94,966.4000
839.19,972.4000
839.44,990.0000
839.69,1005.2000
839.94,982.4000
840.20,1002.6000
840.45,1019.8000
840.70,1012.8000
840.95,979.8000
841.20,982.8000
841.45,982.4000
841.70,1012.0000
841.95,994.2000
842.20,993.4000
842.45,1029.4000
842.70,1003.2000
842.95,967.4000
843.21,990.2000
843.46,994.0000
843.71,1001.0000
843.96,1013.6000
844.21,978.8000
844.46,980.4000
844.71,992.6000
844.96,1024.6000
845.21,981.8000
845.46,985.4000
845.71,1000.0000
845.96,993.2000
846.21,994.2000
846.46,1003.0000
846.71,984.4000
846.96,966.2000
847.21,994.8000
847.46,989.6000
847.71,984.0000
847.96,986.4000
848.21,983.6000
848.46,1000.2000
848.71,997.4000
848.96,1012.6000
849.21,1001.4000
849.46,975.2000
849.71,1001.0000
849.96,971.2000
850.21,974.8000
850.46,979.6000
850.71,996.8000
850.96,945.4000
851.21,987.2000
851.46,980.4000
851.71,976.2000
851.96,977.2000
852.21,982.2000
852.46,973.0000
852.71,990.4000
852.96,989.4000
853.21,985.6000
853.46,1001.8000
853.71,1007.4000
853.96,984.4000
854.21,980.4000
854.46,1026.4000
854.70,987.0000
854.95,996.0000
855.20,978.2000
855.45,991.2000
855.70,991.4000
855.95,991.2000
856.20,1002.2000
856.45,987.6000
856.70,986.6000
856.95,996.2000
857.20,982.6000
857.44,1003.0000
857.69,989.2000
857.94,989.0000
858.19,1002.6000
858.44,989.4000
858.69,998.0000
858.94,1002.4000
859.19,986.6000
859.44,982.6000
859.68,1000.0000
859.93,984.4000
860.18,979.6000
860.43,1000.6000
860.68,1022.8000
860.93,990.8000
861.18,980.0000
861.42,995.6000
861.67,1008.0000
861.92,1008.0000
862.17,1001.6000
862.42,1000.2000
862.67,992.0000
862.91,994.2000
863.16,1005.6000
863.41,998.6000
863.66,1006.2000
863.91,1011.6000
864.16,1004.4000
864.40,982.8000
864.65,985.0000
864.90,969.2000
865.15,973.0000
865.40,981.6000
865.64,1004.8000
865.89,994.4000
866.14,1004.2000
866.39,983.4000
866.64,989.6000
866.88,965.4000
867.13,999.8000
867.38,1017.4000
867.63,969.0000
867.87,990.4000
868.12,999.8000
868.37,1013.6000
868.62,981.2000
868.86,986.0000
869.11,973.0000
869.36,1001.8000
869.61,999.6000
869.85,999.6000
870.10,1027.2000
870.35,996.2000
870.60,1003.2000
870.84,987.6000
871.09,987.8000
871.34,992.0000
871.59,986.0000
871.83,1007.2000
872.08,1000.6000
872.33,972.2000
872.57,990.6000
872.82,1012.0000
873.07,997.0000
873.32,1005.2000
873.56,1009.4000
873.81,988.4000
874.06,1002.2000
874.30,993.2000
874.55,1006.0000
874.80,991.2000
875.04,1012.2000
875.29,992.0000
875.54,997.2000
875.78,984.0000
876.03,991.0000
876.28,985.4000
876.52,983.0000
876.77,986.6000
877.02,993.4000
877.26,979.2000
877.51,982.8000
877.76,996.0000
878.00,994.4000
878.25,996.8000
878.50,1008.6000
878.74,991.6000
878.99,1000.8000
879.23,982.4000
879.48,977.2000
879.73,1002.8000
879.97,996.6000
880.22,978.0000
880.47,994.8000
880.71,967.8000
880.96,1012.2000
881.20,993.6000
881.45,988.8000
881.70,991.2000
881.94,996.8000
882.19,983.0000
882.43,1007.0000
882.68,985.6000
882.92,1030.8000
883.17,980.8000
883.42,1007.8000
883.66,1001.4000
883.91,979.2000
884.15,984.6000
884.40,992.2000
884.64,986.4000
884.89,1004.6000
885.14,995.4000
885.38,1000.0000
885.63,994.2000
885.87,990.2000
886.12,997.0000
886.36,1002.8000
886.61,998.6000
886.85,1002.4000
887.10,995.2000
887.34,992.6000
887.59,992.4000
887.83,966.8000
888.08,997.4000
888.32,981.6000
888.57,1001.2000
888.81,995.6000
889.06,999.6000
889.30,977.4000
889.55,993.4000
889.79,973.4000
890.04,988.6000
890.28,992.2000
890.53,1000.6000
890.77,1021.8000
891.02,983.8000
891.26,995.4000
891.51,982.8000
891.75,1003.2000
892.00,982.2000
892.24,983.2000
892.49,989.8000
892.73,1000.2000
892.98,1000.6000
893.22,987.4000
893.47,973.4000
893.71,997.4000
893.95,1002.2000
894.20,987.6000
894.44,983.4000
894.69,1029.6000
894.93,1033.6000
895.18,991.6000
895.42,1015.8000
895.66,987.0000
895.91,989.0000
896.15,980.2000
896.40,1011.0000
896.64,1010.6000
896.88,982.4000
897.13,1011.6000
897.37,985.4000
897.62,987.4000
897.86,1018.0000
898.10,978.2000
898.35,992.0000
898.59,1006.2000
898.84,996.2000
899.08,1003.0000
899.32,993.4000
899.57,1006.0000
899.81,987.0000
900.05,971.2000
900.30,987.0000
900.54,992.8000
900.78,1033.2000
901.03,1010.8000
901.27,992.4000
901.52,981.0000
901.76,995.0000
902.00,1009.0000
902.25,988.4000
902.49,988.4000
902.73,991.0000
902.98,979.6000
903.22,995.0000
903.46,985.8000
903.70,998.0000
903.95,1005.2000
904.19,1007.8000
904.43,1012.8000
904.68,988.6000
904.92,979.6000
905.16,980.6000
905.41,995.2000
905.65,977.2000
905.89,984.4000
906.13,1016.6000
906.38,995.6000
906.62,1005.8000
906.86,973.6000
907.11,998.0000
907.35,982.8000
907.59,1022.8000
907.83,1018.4000
908.08,993.4000
908.32,973.4000
908.56,993.6000
908.80,996.6000
909.05,1007.8000
909.29,1014.0000
909.53,991.4000
909.77,988.2000
910.02,973.2000
910.26,1025.6000
910.50,986.4000
910.74,1006.4000
910.98,995.8000
911.23,1000.0000
911.47,1001.6000
911.71,1000.6000
911.95,982.0000
912.20,996.0000
912.44,975.8000
912.68,989.6000
912.92,990.6000
913.16,1005.4000
913.41,960.4000
913.65,1011.6000
913.89,989.0000
914.13,985.8000
914.37,978.2000
914.61,1022.6000
914.86,982.6000
915.10,992.2000
915.34,997.4000
915.58,982.0000
915.82,973.6000
916.06,981.0000
916.31,994.8000
916.55,985.0000
916.79,1000.2000
917.03,1013.8000
917.27,990.2000
917.51,1014.2000
917.75,994.2000
918.00,977.4000
918.24,1008.4000
918.48,993.4000
918.72,1033.4000
918.96,1003.2000
919.20,1017.4000
919.44,1026.4000
919.68,1054.0000
919.92,1000.6000
920.17,988.2000
920.41,993.8000
920.65,1005.4000
920.89,988.8000
921.13,994.0000
921.37,1002.6000
921.61,965.0000
921.85,987.2000
922.09,996.2000
922.33,1010.0000
922.57,997.4000
922.81,977.0000
923.05,1008.6000
923.30,992.2000
923.54,1000.4000
923.78,973.0000
924.02,1006.2000
924.26,992.2000
924.50,984.6000
924.74,1006.8000
924.98,976.6000
925.22,999.8000
925.46,988.0000
925.70,996.8000
925.94,1032.2000
926.18,999.6000
926.42,1000.4000
926.66,1003.0000
926.90,994.4000
927.14,978.2000
927.38,986.2000
927.62,979.2000
927.86,1037.2000
928.10,1010.6000
928.34,990.8000
928.58,979.0000
928.82,994.4000
929.06,995.4000
929.30,1035.4000
929.54,996.8000
929.78,982.2000
930.02,970.0000
930.26,1001.8000
930.50,981.0000
930.74,990.2000
930.98,988.8000
931.22,995.0000
931.46,983.4000
931.70,995.4000
931.94,993.0000
932.17,993.8000
932.41,1004.8000
932.65,990.2000
932.89,990.2000
933.13,985.2000
933.37,1002.2000
933.61,971.4000
933.85,991.2000
934.09,990.4000
934.33,977.6000
934.57,962.2000
934.81,982.2000
935.05,999.8000
935.28,996.0000
935.52,979.2000
935.76,971.8000
936.00,987.2000
936.24,1000.4000
936.48,987.8000
936.72,994.6000
936.96,1004.0000
937.19,994.2000
937.43,1009.0000
937.67,984.0000
937.91,981.0000
938.15,983.4000
938.39,986.6000
938.63,990.6000
938.86,975.8000
939.10,983.4000
939.34,980.4000
939.58,965.2000
939.82,983.2000
940.06,985.2000
940.30,969.6000
940.53,970.4000
940.77,968.4000
941.01,971.4000
941.25,969.8000
